SLC Damping Ring Gated camera results.  10 e+ verical profiles at I=0.75mA.  
The distance beteeen each pixel on the gated camera is 1 micron.  
Pixel    Pic1(Counts) Pic2(Counts) Pic3(Counts) Pic4(Counts) Pic5(Counts) Pic6(Counts) Pic7(Counts) Pic8(Counts) Pic9(Counts) Pic10(Counts)
  1      120.33145    122.35700    119.74807    110.26151    121.99840    118.29762    115.39652    120.56657    116.24847    113.78211   
  2      121.44638    116.29636    124.26199    120.89926    123.69179    111.53792    114.41426    115.61088    119.88030    112.88563   
  3      117.39862    112.64850    123.81978    120.87096    112.34846    113.61404    111.47319    112.29154    117.00178    122.49408   
  4      118.70771    110.17841    124.96232    114.48618    124.08604    123.97474    121.08541    122.45282    116.50491    113.04608   
  5      119.26397    118.91398    119.47605    116.00901    110.17734    113.60218    124.04507    114.19063    116.34602    117.43747   
  6      119.08275    119.74052    122.23196    121.62823    122.30733    113.25251    120.31461    123.91680    116.69043    121.51478   
  7      112.41275    116.04919    122.64882    124.45672    118.41689    113.24074    120.89039    121.17418    116.13023    114.63339   
  8      119.09497    124.01358    124.65258    118.47274    123.18502    120.80543    118.72561    120.88719    118.23093    112.34367   
  9      116.70468    118.47349    117.72466    112.31398    110.44919    116.06469    110.97041    116.20012    112.98500    113.65263   
 10      112.67608    117.14412    111.34725    123.95623    113.94894    122.36907    115.14764    117.90277    120.17530    115.86564   
 11      118.08844    111.56378    118.05428    117.05896    121.24663    120.42492    116.43673    117.56620    112.14297    123.15243   
 12      111.94886    124.19178    114.15788    116.24642    110.29075    111.21424    115.73340    121.29866    114.85513    110.72136   
 13      111.31179    122.04310    123.31087    121.82012    121.24367    122.43032    119.05819    115.63510    110.07183    119.04681   
 14      121.39256    117.20292    121.54660    113.62625    122.58481    111.64809    122.78989    122.19334    112.04929    113.77706   
 15      116.55252    116.69208    117.95154    117.86317    111.31592    111.28310    120.46276    118.55796    110.09594    118.98868   
 16      117.23885    116.53880    122.11601    122.14240    117.28750    110.95035    120.95663    121.67756    124.09448    119.82307   
 17      115.53446    121.53437    118.85994    111.02660    116.87970    119.13845    122.46688    113.62815    114.26847    118.38821   
 18      122.31058    124.07942    116.54666    113.14455    112.61225    118.23656    114.21212    120.63283    112.76210    124.84104   
 19      117.03788    116.22405    124.74062    118.91128    124.02407    117.20971    110.30425    114.11228    116.08606    110.65353   
 20      115.17831    115.09755    112.33878    117.25990    116.84847    111.40599    114.89997    119.45150    112.02495    115.28924   
 21      121.32000    112.99176    115.92687    113.37221    115.34752    114.67281    112.74286    122.21742    122.65644    124.34704   
 22      120.75229    121.58244    110.09957    115.68849    112.23707    121.15599    119.31786    122.22681    123.07495    110.04327   
 23      120.84171    113.08050    111.89333    114.13426    120.45901    115.67052    116.33508    116.58312    120.88222    117.70645   
 24      114.25406    111.05532    114.36945    112.26519    115.22843    115.52130    122.22113    123.39673    120.49825    111.48167   
 25      117.13907    113.81085    120.39756    119.39546    118.33832    118.36913    111.71550    120.15025    123.49282    110.17401   
 26      117.20753    111.35718    122.38375    119.86611    117.56591    119.34144    114.44172    119.88499    118.57331    119.63779   
 27      110.18860    111.10114    111.57672    114.38196    114.36356    113.55164    114.54024    123.17373    114.58534    114.75309   
 28      119.76200    115.42272    116.77372    114.31670    114.71594    120.40967    114.23240    112.05438    124.77200    118.40502   
 29      122.18218    113.32158    111.19058    123.83476    123.25972    116.68235    112.68662    116.46659    112.36135    115.25334   
 30      120.29614    117.94737    119.67036    112.98526    119.22278    119.39865    114.75092    115.00755    113.81377    117.32493   
 31      122.11183    118.60069    124.77907    117.70738    118.45411    117.37974    115.55839    111.18219    123.88045    119.42263   
 32      117.38568    115.81481    120.99769    122.82587    122.07918    111.49216    124.58600    124.03410    121.30016    110.61389   
 33      119.24514    123.29518    120.88395    121.28822    121.12630    116.43986    111.15160    114.65786    116.20018    114.25554   
 34      117.49051    123.17497    113.27650    120.42222    116.92614    121.06883    114.74539    124.79675    115.49476    124.23902   
 35      111.77238    113.40903    122.04199    122.78787    114.53978    110.19388    120.49274    120.11613    122.20018    123.73142   
 36      114.39508    110.25776    123.58578    112.79247    118.50119    115.32061    123.57895    115.21813    119.92225    111.66664   
 37      117.17851    123.47989    111.16907    118.28940    119.02348    120.68750    113.92816    116.77025    122.64070    116.99344   
 38      115.18322    110.92839    120.00360    117.34051    114.36938    118.18661    120.85477    118.61513    122.82454    110.52865   
 39      111.52443    111.16396    114.42097    123.82500    112.83398    111.74073    118.92789    115.86865    121.69490    113.06540   
 40      111.29946    111.88909    124.31533    117.46915    114.65689    123.02586    111.24375    111.20576    124.25207    117.79599   
 41      110.57430    110.81876    111.69444    110.11553    114.43309    116.48188    110.05117    120.59920    121.23118    119.69326   
 42      115.22243    116.90857    117.14446    111.83224    123.69418    110.90483    115.49508    122.88667    117.81840    120.87516   
 43      117.40589    121.97872    123.76305    117.77340    111.57279    114.76825    116.03323    112.58509    116.41708    122.71016   
 44      122.20570    110.33221    119.38063    123.17982    124.81215    120.91436    115.32082    118.45281    113.36719    110.53296   
 45      121.17161    112.59674    115.16632    116.27250    115.30602    117.57763    124.58536    113.16243    114.80548    117.25088   
 46      112.75153    112.76894    113.45393    124.04314    117.61497    116.87492    118.97699    112.43115    120.63053    112.69477   
 47      116.85096    118.03955    123.18334    117.92014    121.43937    118.12446    115.37636    113.33352    122.18651    119.05035   
 48      113.56416    116.00886    116.58861    120.85429    124.48695    119.48684    117.46537    118.66247    118.35134    121.84442   
 49      122.20489    123.94500    114.95088    114.41743    113.63233    123.05900    116.13840    110.12321    120.10693    115.93658   
 50      110.42015    111.30805    122.09830    120.30024    120.04948    123.16551    122.37253    112.47799    111.49187    113.91428   
 51      110.66016    122.60290    121.08473    119.33914    117.70249    118.22949    113.00101    119.10495    116.43981    124.55961   
 52      115.07622    113.82031    118.60206    124.25329    124.68719    115.90817    124.43556    117.97874    110.41775    116.88290   
 53      122.52805    115.05033    114.52653    114.83818    113.48653    116.45835    120.12026    110.26317    118.07287    123.18777   
 54      119.44930    116.58101    114.77891    123.15535    115.65079    122.68742    121.16966    117.02139    118.25913    116.54643   
 55      114.62141    122.71638    119.52804    122.10129    110.88382    122.80858    120.88720    116.02723    112.93370    121.14058   
 56      116.36810    122.64572    118.54412    119.95037    113.49473    119.12131    118.39216    114.17957    118.77135    124.92496   
 57      117.14302    123.08399    119.73361    116.01541    120.32167    121.20084    124.60934    123.62989    120.68524    121.06736   
 58      113.03121    117.99659    120.43487    112.52729    122.06772    124.94415    116.69499    122.36696    110.77939    121.71041   
 59      116.72823    112.98284    118.77630    121.88292    120.87192    114.13460    115.09990    114.50986    114.68128    121.83757   
 60      110.92973    122.88667    121.29864    114.68471    122.14319    116.15927    119.14104    119.56244    113.52521    118.37721   
 61      113.21750    110.48499    115.45629    118.10472    123.58667    111.83537    120.95266    122.66248    123.88025    119.49037   
 62      120.31345    110.36363    124.22388    122.07366    111.44226    121.40113    114.89477    119.66507    121.72481    117.23811   
 63      114.27336    123.60938    118.78693    122.21625    110.89890    124.85586    123.39893    111.84377    120.91816    118.43913   
 64      118.86403    121.14486    123.78733    118.16743    117.73709    121.99671    121.42003    110.91655    122.50990    119.39994   
 65      116.53619    124.54044    122.80049    120.37171    117.62886    113.74953    115.86724    119.33688    113.54645    117.22921   
 66      112.30266    117.32715    119.70031    123.37050    114.34549    123.27497    113.17763    119.65316    112.61566    110.22402   
 67      118.48865    121.28010    115.52814    124.29535    122.27162    120.57708    123.29736    116.99034    113.42540    113.88997   
 68      110.27802    111.24995    124.85320    120.87904    117.58198    110.22975    113.67809    121.32815    123.09009    119.94508   
 69      118.15624    118.63194    115.91467    124.55583    116.44318    110.31471    121.30399    123.32987    118.52914    113.29239   
 70      119.44565    116.89790    118.10491    118.61170    117.62391    119.63104    122.66097    123.49090    120.04283    124.93889   
 71      116.91894    122.40020    117.04303    116.12394    117.21551    110.65268    119.87828    119.91220    113.91966    118.86937   
 72      118.76051    121.86903    124.49103    111.22979    117.96281    124.75321    123.10111    122.12609    116.00118    120.29418   
 73      114.31268    122.60565    124.00327    116.44558    122.14504    117.82435    117.76232    112.88374    114.92050    123.66438   
 74      113.28468    123.84729    111.63150    114.74847    114.45909    118.44047    117.53038    112.03103    114.37961    124.74508   
 75      113.06359    122.89942    122.45379    112.78465    116.34464    118.81781    117.10637    112.57754    123.52315    119.48153   
 76      110.55371    122.57179    118.20370    117.72537    114.97974    123.58613    120.08767    123.68820    123.36286    111.28898   
 77      113.11661    122.14859    119.21194    124.81780    117.63068    112.42372    110.74035    113.91808    111.20371    112.00245   
 78      110.31058    115.41658    120.86174    114.25806    118.65065    114.24196    116.43805    123.03092    118.05464    122.04856   
 79      118.92128    114.99200    122.00007    123.49771    114.93381    122.79498    113.46091    112.43358    117.05864    110.71780   
 80      123.34153    122.74025    124.74385    115.34792    113.07644    122.13371    111.95455    123.31118    121.63324    114.89653   
 81      110.41756    116.69647    123.09274    120.33434    116.49485    116.22419    120.31338    122.18502    114.75755    117.26162   
 82      113.13857    113.98506    112.88239    115.22963    118.30925    119.35324    117.08495    114.96750    117.27728    117.08647   
 83      112.08423    120.83736    113.19281    119.01590    114.08820    117.94534    117.35613    121.88430    121.18399    120.93550   
 84      117.08880    115.64321    119.60758    110.82631    116.53086    112.81040    111.21011    110.33332    116.72855    119.39012   
 85      114.33511    117.88994    120.57755    113.37599    119.36383    117.14293    114.87771    122.56147    118.94797    124.31505   
 86      110.02778    120.95137    124.60411    124.13540    111.95595    122.99984    114.09722    110.47024    113.22086    122.39574   
 87      116.64788    115.03899    119.35539    117.85956    116.67919    123.66612    115.92446    122.36155    119.47966    115.15256   
 88      112.34933    115.67918    114.62282    122.78146    118.85079    115.49317    111.07633    118.15438    117.95963    120.73520   
 89      123.28921    119.51859    118.46243    120.80202    111.27979    120.65601    110.47927    110.89818    117.33569    114.98916   
 90      119.05337    121.62608    116.21394    119.42221    112.26167    111.93578    112.23074    119.74438    111.42714    111.12927   
 91      122.44154    122.15988    118.21551    115.76804    116.88610    113.11098    118.35997    121.92127    117.83810    122.50721   
 92      116.04665    116.03354    122.95862    110.85059    113.12701    118.97790    115.22645    122.37356    111.98583    111.46447   
 93      112.16662    124.15975    120.60192    111.40831    121.62106    117.13733    118.29018    115.16096    121.92818    115.65929   
 94      112.69275    120.68364    120.36178    110.93228    118.89006    116.04042    123.90282    119.41450    113.78469    118.22781   
 95      123.34480    118.65190    111.56222    116.74742    113.32462    115.63625    111.84710    118.97853    112.92684    118.06561   
 96      115.43994    116.03782    110.46637    124.03681    119.27322    113.43841    115.66771    112.28048    114.22076    115.62614   
 97      118.53989    122.35336    122.10413    114.11875    114.69978    115.45761    111.46948    119.96768    121.70107    123.46312   
 98      111.75547    118.46708    114.76821    119.01817    119.83121    110.91527    117.63572    111.12057    116.67689    113.83729   
 99      123.75736    112.48793    120.70753    122.45918    123.29019    124.52941    114.88292    115.86149    111.24959    118.56384   
100      118.15446    111.94573    113.50503    112.83057    117.94747    112.41565    121.94058    113.19110    111.82990    112.18717   
101      110.78432    118.53807    121.20035    124.48750    115.28783    122.71602    121.57856    121.22636    120.75356    119.89075   
102      124.01829    115.81988    111.22132    119.49946    122.27637    113.56421    112.78476    119.21870    110.95847    121.05185   
103      121.24482    121.68491    114.63265    114.36779    123.21083    122.68243    119.12049    122.15666    120.63165    119.15915   
104      114.56062    111.31240    116.56102    116.62557    119.57246    121.86406    124.21130    111.13335    113.19276    118.22026   
105      114.66526    114.83947    120.32700    115.27350    113.86453    110.33412    118.48658    113.02913    119.78949    111.21802   
106      122.31458    111.00655    123.47812    123.95420    122.98821    121.02550    124.92910    112.72976    111.96535    110.44089   
107      118.95141    112.12209    118.67569    125.10749    112.10472    116.19651    111.85577    119.46582    123.54993    122.91219   
108      116.52736    111.34868    123.99739    116.71633    110.74564    117.60946    121.73891    113.39973    120.79741    115.43223   
109      122.78653    120.23342    122.26037    119.09654    118.03008    117.33796    121.58847    110.13974    110.81235    119.33475   
110      121.99526    121.55256    115.93003    116.00367    118.74799    119.66384    120.96772    110.26157    117.53450    118.53588   
111      114.17086    114.10921    121.98474    118.35164    115.23836    112.55963    111.35157    114.75673    112.23062    117.23652   
112      120.35792    116.15559    118.01747    122.45088    122.41527    117.86523    116.41950    118.39600    115.35951    119.82982   
113      119.28282    121.89508    119.56422    113.71207    117.79477    113.18635    120.62665    125.63674    115.07111    119.16266   
114      111.04313    123.07327    110.62398    122.63832    125.11394    119.47933    121.57089    118.58097    119.09107    112.75355   
115      120.33480    110.63780    111.64617    119.67317    111.19260    115.10435    116.55825    125.50336    118.85391    119.21546   
116      116.79492    117.83738    110.70766    124.07745    120.60724    113.50662    120.60228    118.03790    123.76809    117.64614   
117      116.01636    123.45181    126.03632    125.16739    114.33106    119.49577    114.77964    112.29571    112.13078    123.16703   
118      114.95848    110.80470    118.97987    115.72584    111.29156    116.75701    124.41159    120.83912    117.55945    111.72556   
119      123.10613    116.74030    112.44389    124.89165    113.99891    125.38764    115.35021    117.61481    110.92167    116.88857   
120      115.90864    125.03824    120.51243    113.44976    124.40922    112.90673    124.96696    113.10546    125.57136    124.25162   
121      110.90137    115.08425    120.61666    123.45954    120.40287    119.58932    123.01765    123.94036    121.20013    122.24574   
122      113.65633    122.91500    111.32782    115.53710    114.45410    115.58219    117.42877    126.75864    116.62770    122.24567   
123      122.51417    125.46688    119.38864    121.35902    120.57025    121.20936    124.49255    117.43596    115.29919    112.41495   
124      119.65977    122.34856    115.83772    125.16788    111.24857    117.02519    122.76852    124.43863    123.72520    117.47599   
125      115.51796    125.65256    111.22272    114.83333    112.41128    125.09001    125.99779    126.24985    119.37666    114.10415   
126      126.59668    118.13685    117.83633    117.59467    119.61490    120.10551    125.18330    115.68357    121.97643    113.48536   
127      124.88208    116.01956    122.40389    111.58390    119.84220    117.49389    125.37521    121.44103    113.37596    122.02783   
128      114.39362    114.17208    127.40230    124.58835    118.54156    127.71786    121.90239    119.60444    120.08661    123.20256   
129      114.52159    118.66655    123.66943    119.37084    112.76721    116.89038    112.76336    119.21228    114.33108    113.20422   
130      125.29671    121.03062    122.82294    117.37845    129.63806    118.74885    117.61420    120.81850    121.14260    119.06660   
131      117.99176    122.69522    124.84971    117.65750    119.89864    116.59625    124.35593    119.08700    125.77792    118.25318   
132      115.36594    119.89432    122.09583    121.32909    121.36744    117.81391    116.38825    114.43036    123.02656    115.52735   
133      126.40456    130.33200    118.85701    125.09801    119.57937    123.76259    123.51196    126.89391    127.73661    118.66970   
134      118.57819    120.11086    124.82670    125.03506    122.88011    122.74618    121.80886    126.71091    121.14434    116.40261   
135      124.53189    121.18136    128.07829    124.34946    118.55554    127.42719    121.37497    120.57043    124.05459    128.76988   
136      124.98718    121.65063    125.35154    125.44103    114.73558    126.40478    114.93948    123.70051    115.48400    125.83362   
137      131.14591    123.06641    128.68934    121.23516    129.59768    120.42723    124.62916    120.97972    127.28980    130.82822   
138      130.13511    129.85569    118.42434    134.15107    129.52970    129.57787    124.78355    125.33425    123.09446    133.81140   
139      135.87450    127.15049    120.41914    126.48780    123.43634    124.26606    121.29940    123.15800    119.87663    131.32433   
140      124.11596    115.70040    123.03645    126.62684    129.42326    131.94234    130.40458    125.61127    123.55406    127.70408   
141      130.70289    128.00312    126.98163    122.12602    124.08293    121.10572    117.52455    134.44420    120.13402    121.74802   
142      123.05331    133.10742    126.55773    128.16885    132.96928    131.81179    134.52143    123.27781    118.31137    130.71226   
143      132.50399    119.09169    136.41077    119.82700    126.35552    132.95342    131.21564    125.51782    131.01034    119.14177   
144      126.73093    137.71190    131.63914    131.39672    123.20277    130.95169    122.21134    134.49429    123.18042    130.25615   
145      131.86538    129.04394    125.75681    138.87312    123.90002    137.94825    137.36014    136.55828    139.56829    123.78499   
146      142.44382    139.80386    145.90539    119.17380    148.59899    136.39671    129.17905    130.85087    145.43068    119.40848   
147      134.90791    123.92860    130.94067    127.34538    119.98782    129.79727    139.29354    135.41115    124.50346    133.03624   
148      137.54113    141.52236    131.49826    129.49256    129.32244    134.97186    140.19098    144.76603    123.97496    140.17085   
149      127.46444    133.50800    130.77315    136.48450    136.34386    133.55714    134.86816    133.50895    138.33373    139.35027   
150      132.83656    132.01199    131.41700    134.36578    143.41829    149.79446    148.03730    132.41366    138.50743    143.52229   
151      138.98784    134.32324    143.67375    134.71143    137.01928    146.92429    131.13110    148.13668    145.65529    132.36965   
152      157.48247    128.45535    141.71719    154.55926    144.43064    139.38099    142.26669    129.26583    150.82071    145.34363   
153      142.64276    141.62673    153.85934    148.57689    143.52641    154.89918    135.26767    148.75078    141.24891    150.62015   
154      140.35316    152.24768    136.21145    152.61644    153.83711    167.18612    141.92177    154.08563    133.94272    158.84514   
155      165.76614    151.15358    149.72140    136.62885    141.29524    156.55879    160.79034    151.71059    143.32005    151.61824   
156      158.38005    142.20193    144.40329    157.37108    135.64972    155.83894    171.37400    135.17038    146.36461    159.22178   
157      147.75120    166.70903    141.02101    163.16535    137.99935    161.32246    153.85435    151.55261    151.07776    140.24978   
158      140.60257    153.54925    152.56245    152.69701    154.67757    173.42669    140.00167    145.02058    166.75687    173.06830   
159      166.92071    178.88820    159.50083    177.52696    157.12217    177.51098    149.28059    184.86197    166.00521    173.12632   
160      191.59563    167.16762    152.22479    169.42450    172.43358    163.11717    175.12875    163.73918    180.71699    158.48639   
161      172.11091    195.87066    194.03356    181.62315    176.21508    181.51861    201.36022    157.85696    201.08147    166.85771   
162      189.73501    181.84556    202.34184    184.78261    177.15867    171.04196    181.51322    188.43086    170.11268    196.53803   
163      189.61150    194.10379    203.41033    187.51716    190.04880    169.51423    181.10340    178.31554    183.46435    164.17573   
164      202.49466    165.74541    170.61244    180.22846    169.70466    210.85679    224.23428    200.97304    165.92110    182.11346   
165      215.22318    194.85686    209.80305    174.38819    166.30318    189.32136    216.17769    198.96301    208.00903    211.28332   
166      228.06649    222.88608    228.93667    207.41644    181.93051    180.15535    201.89942    186.94847    208.08427    192.43541   
167      198.11608    193.25326    192.41043    180.04639    218.94287    218.92202    202.71049    214.09705    202.40166    219.79062   
168      179.11206    202.62681    191.69594    254.25035    198.81524    206.20318    205.24469    214.49908    236.63140    191.37154   
169      219.68310    246.97933    253.73894    219.05900    226.37123    229.02977    193.77176    261.16656    197.00463    240.95001   
170      236.27327    220.74096    227.04576    234.27489    202.51509    194.65769    208.28398    230.88333    214.36968    246.92218   
171      199.73292    276.40107    276.97378    234.58620    270.38834    218.48805    245.89387    251.74687    200.84704    241.66905   
172      284.85483    253.61874    282.57650    255.10450    245.54151    243.67088    250.67600    234.38346    219.72629    272.39943   
173      303.45775    287.54986    286.03669    271.00905    281.78961    274.03180    273.26219    275.63849    259.97955    247.54496   
174      292.14183    233.92434    236.30157    253.12473    264.23248    274.40659    281.99393    255.57509    313.53135    237.84603   
175      251.86820    257.98685    309.43658    277.09091    270.51828    233.68764    290.91521    253.33195    285.58748    310.84957   
176      270.10892    304.10057    255.80100    265.48493    319.62621    263.99913    261.50139    292.39243    313.29241    301.18768   
177      259.16484    306.10083    294.49575    309.14775    322.05935    282.43171    287.82047    267.51776    320.75102    279.10370   
178      292.45860    331.15921    324.20168    317.45649    276.56495    283.51502    325.44994    332.34581    297.30491    283.27788   
179      286.50557    313.47087    357.60685    308.99833    361.82676    340.00779    350.57305    340.33171    376.07317    295.66921   
180      326.77315    311.60840    344.49931    296.92782    284.41202    324.27606    387.90456    330.10434    333.83766    352.09868   
181      297.73931    310.53911    311.06569    394.97426    350.36279    379.58558    342.05196    374.34746    354.21639    374.22518   
182      364.54970    325.43384    424.81257    364.86374    342.36773    431.54771    351.75674    415.49325    420.11012    377.93873   
183      356.21462    355.91866    365.89364    376.72793    442.61161    388.27696    430.76673    432.00881    352.36683    426.16931   
184      339.98375    389.52633    424.75056    356.63805    424.02403    437.09528    406.42556    441.30218    364.72027    370.71697   
185      404.24105    369.63341    406.72757    460.75923    389.75043    459.55071    409.76801    421.90860    385.98699    493.30276   
186      393.04636    390.20544    480.29829    512.50461    396.18056    521.77275    478.12234    495.00214    450.97449    396.78412   
187      452.04379    456.03940    493.22343    488.11619    487.32661    463.95452    483.00531    449.25529    475.13905    436.82642   
188      463.83714    431.70654    409.96746    475.31365    428.79865    499.21782    512.70682    436.55808    426.96945    494.50528   
189      524.46276    444.25623    505.02477    568.81182    490.86579    466.97614    604.07418    448.37731    496.80824    489.71779   
190      518.20228    527.79114    481.07352    521.51407    570.84098    566.63883    476.95584    528.36727    481.97807    608.85117   
191      532.34518    494.80678    535.41270    615.67633    516.94573    631.01510    475.43068    576.41591    581.10324    589.72387   
192      656.36507    619.55273    685.50652    612.20019    583.20959    562.33126    623.34446    566.63572    686.34523    638.91558   
193      590.10115    539.21041    646.91951    529.05340    630.56342    639.30105    655.81050    581.43486    549.17280    603.43938   
194      671.49570    583.45788    645.58661    591.92902    684.73495    607.16625    631.05276    595.67794    700.57470    648.56338   
195      630.44514    649.68453    718.35789    585.91873    674.54947    706.10968    725.76839    690.68590    619.70631    583.47242   
196      819.07144    682.86608    678.73703    681.79685    681.57594    641.95754    615.66283    671.14475    687.18869    602.92824   
197      684.71722    738.86791    677.42869    642.37601    666.18766    680.27736    848.44491    703.41654    687.23411    759.68761   
198      781.60332    782.87379    782.52995    720.89605    692.21670    763.60536    740.12636    691.19402    784.75698    812.27412   
199      814.11667    776.28017    776.34751    822.12981    796.65245    880.00327    757.70666    747.58587    847.67658    817.42311   
200      785.35356    840.78026    757.67791    798.31227    854.45948    867.13022    887.34873    806.10880    891.89868    833.85580   
201      901.19280    884.90269    921.50924    935.45441    814.84359    740.03786    897.69317    786.44399    879.13517    802.47467   
202      901.62540    960.27725    869.09204    890.84555    923.98478    878.14361    898.84940    900.42650    924.09849    910.64410   
203      984.89887    903.69965    953.30110    832.20863   1010.76402    885.79911   1060.16435    854.00230    990.28439    985.70756   
204      980.79195   1027.01083    977.27780   1012.17173    959.25922    997.56263   1027.85483    918.55840    954.67738    985.28899   
205     1038.02148    900.26619    946.48231    930.08964    929.03647   1010.13379   1015.46557   1025.65704    943.57236    907.45862   
206     1016.39883   1044.24179   1015.94979   1026.26083    976.35592   1006.06885   1011.74416    954.39029   1125.51215   1091.40732   
207     1152.29471    968.84894   1031.41377    946.57298    966.10601   1023.39705   1102.20229   1045.19556   1055.10405   1171.12909   
208     1120.49845   1206.87747   1059.25751   1223.76701   1073.32557   1162.62861   1126.78726   1181.01900   1040.57198   1066.81634   
209     1311.92143   1212.41457   1263.35459   1096.79239   1141.80189   1040.17874   1159.41904   1153.39989   1105.80232   1235.09382   
210     1296.80515   1279.35363   1209.23767   1242.51317   1221.02559   1205.04413   1154.67820   1284.66876   1219.04106   1291.20023   
211     1218.49555   1128.34129   1304.10999   1253.79654   1211.91292   1069.93681   1256.89919   1224.84861   1270.25938   1184.90229   
212     1227.65918   1286.35601   1435.17943   1206.06026   1268.37122   1186.48718   1298.87683   1270.37787   1246.23288   1292.09347   
213     1390.81225   1236.84179   1384.02230   1183.01047   1379.02104   1378.50096   1233.84881   1353.62076   1221.32193   1328.93507   
214     1216.90101   1265.38661   1336.72353   1524.86974   1299.89822   1283.90062   1347.44214   1468.64577   1332.48156   1315.80657   
215     1445.17051   1346.15813   1545.07264   1381.94445   1449.76239   1379.02496   1505.57091   1385.04368   1505.67697   1374.48285   
216     1433.75931   1469.81937   1331.31335   1534.92308   1415.70334   1393.88301   1425.80680   1426.92953   1491.97439   1415.97075   
217     1513.81329   1470.90665   1658.29768   1455.23444   1443.83280   1435.07564   1525.24967   1531.60958   1627.76708   1457.84997   
218     1604.25775   1549.56816   1549.57741   1628.31791   1534.00543   1469.17642   1723.29684   1580.30067   1581.83724   1626.13886   
219     1647.29206   1612.89238   1733.96580   1759.31041   1672.65899   1559.24487   1641.06465   1544.84286   1664.54631   1585.91161   
220     1687.69462   1688.83955   1811.85751   1553.04545   1525.32253   1621.34677   1672.35249   1599.31406   1727.75154   1619.24246   
221     1601.45214   1775.20313   1631.88170   1781.51555   1680.39036   1795.22875   1602.49553   1654.66156   1775.87320   1604.08027   
222     1859.65165   1784.14041   1760.14105   1745.03635   1875.13530   1738.90948   1729.12660   1763.63725   1803.24401   1790.54807   
223     1812.65014   1842.82568   1836.77607   1799.01895   1933.49600   1877.79656   1880.38412   1793.53685   1776.36890   1953.93795   
224     1930.29575   1849.62092   1932.94157   1750.82691   1831.48298   1822.08647   1949.38042   1854.63920   1805.53181   1990.41514   
225     1808.70094   1860.47757   1938.31171   1950.05875   1970.10228   1871.35984   1989.58827   2056.62924   1910.39401   1826.31031   
226     1947.91583   1846.37902   1911.50578   2094.33148   2034.14526   2056.13714   1961.65416   1991.94873   1983.76064   1815.37151   
227     1879.26933   1989.40302   2106.21336   2104.48331   2115.88244   2025.66876   1996.15828   1953.81432   2063.34630   2016.67787   
228     2087.57282   2130.68121   2109.12774   2104.17629   2005.21366   2125.94445   2076.94026   1978.46000   2082.72696   2175.71387   
229     2136.88332   2083.29506   2051.78962   2067.39045   2163.40364   2118.53703   2080.12798   2095.01346   2117.19891   2199.96270   
230     2155.10302   2233.57796   2168.49709   2154.36290   2220.96941   2091.96090   2196.74217   2220.62505   2120.99832   2173.33768   
231     2119.85515   2148.33356   2294.27386   2168.57820   2207.71939   2226.73723   2310.91121   2088.07321   2324.73565   2162.80577   
232     2305.65155   2156.55986   2202.94808   2223.57885   2262.78913   2110.95730   2336.54907   2161.61134   2255.80207   2318.76958   
233     2301.30853   2356.52839   2179.18829   2306.15939   2368.44112   2424.04068   2224.21075   2334.31045   2318.54286   2327.17755   
234     2308.31507   2260.67783   2311.68720   2328.90475   2281.67743   2368.48125   2265.62940   2413.91563   2254.23479   2322.16619   
235     2443.27934   2471.48861   2290.03628   2274.98104   2251.26025   2380.91156   2349.80858   2336.74876   2515.36553   2372.56889   
236     2466.66207   2320.56289   2459.74260   2438.69351   2339.80692   2486.52136   2401.37303   2411.94686   2455.21801   2509.48035   
237     2530.13521   2467.15353   2379.87841   2531.94331   2488.85250   2429.64736   2435.19354   2504.67127   2498.92548   2560.33443   
238     2482.52994   2564.73573   2579.13367   2467.94151   2463.60452   2567.79999   2471.18280   2556.01621   2560.56029   2521.86747   
239     2627.79739   2592.81060   2528.93986   2530.75476   2516.01746   2575.74295   2540.27805   2597.97943   2610.58767   2505.50661   
240     2647.29916   2622.71504   2536.43674   2585.51514   2512.11530   2530.47827   2571.07299   2678.49146   2619.79863   2621.81788   
241     2667.63327   2567.43145   2563.80914   2684.79465   2635.25661   2555.91339   2599.19944   2683.74779   2590.13000   2515.43354   
242     2711.27263   2664.33004   2610.19399   2618.15762   2584.93096   2629.50142   2673.66527   2678.25918   2712.68256   2712.15556   
243     2727.93915   2703.63596   2644.23469   2668.77588   2717.19354   2645.05185   2656.53828   2682.34153   2721.81748   2619.40102   
244     2743.89524   2700.50386   2672.08321   2686.58739   2773.01156   2700.80726   2725.68174   2733.74696   2707.76609   2751.70679   
245     2685.08949   2716.78889   2720.17856   2793.81349   2707.96582   2798.64646   2749.72101   2721.74179   2779.22750   2770.60246   
246     2769.82080   2747.46881   2764.06587   2771.65513   2806.65598   2818.70068   2800.60888   2784.20823   2771.16620   2801.31785   
247     2833.97746   2800.20400   2863.68075   2798.81320   2789.14555   2782.46825   2842.62433   2731.90494   2807.21350   2820.14532   
248     2815.71553   2802.62772   2821.72235   2811.60561   2855.87112   2884.03703   2876.09076   2770.38796   2874.68640   2871.64971   
249     2807.04386   2833.94537   2818.04959   2853.16996   2826.17525   2794.84971   2876.39465   2827.55404   2803.23950   2863.09463   
250     2881.10791   2852.22554   2901.49229   2801.42502   2870.45921   2846.70657   2896.29396   2838.27214   2882.30174   2880.59671   
251     2892.08991   2860.51410   2884.60067   2874.77936   2838.98957   2851.65684   2883.16620   2902.26467   2900.12972   2877.34185   
252     2921.43906   2934.69395   2898.81572   2912.70003   2900.17583   2904.43167   2885.72885   2898.34354   2918.03141   2899.59620   
253     2881.27241   2920.24346   2901.69143   2922.93597   2873.41301   2918.52709   2905.87771   2903.21378   2925.48324   2901.28700   
254     2938.64323   2891.16412   2925.60930   2917.09538   2929.16189   2931.22311   2941.15597   2904.12357   2909.64471   2908.08925   
255     2957.34843   2942.66174   2939.84817   2922.74543   2942.54822   2959.95981   2902.13587   2952.58224   2926.56697   2941.80030   
256     2951.76118   2951.42629   2959.70797   2908.96268   2924.25008   2931.82942   2947.84123   2916.66459   2953.39308   2963.24251   
257     2947.82043   2948.55259   2932.35407   2948.88246   2921.79208   2931.68945   2924.23889   2917.47083   2928.04798   2962.50043   
258     2968.02925   2934.29328   2950.39982   2967.91370   2914.14414   2970.07130   2930.65607   2932.95837   2963.80110   2962.53343   
259     2952.42622   2919.34966   2961.17785   2922.15459   2925.49904   2924.59555   2914.41732   2932.26641   2941.45033   2952.74994   
260     2919.89358   2963.42831   2962.85176   2939.90690   2923.71535   2930.87678   2965.17549   2926.00851   2913.33974   2916.80550   
261     2945.83831   2934.52663   2944.19412   2936.86851   2917.36571   2914.87462   2942.13621   2945.56237   2939.26861   2951.74895   
262     2909.57697   2955.18792   2941.63970   2913.31330   2934.75137   2950.23911   2934.19633   2962.22863   2913.01979   2924.27463   
263     2904.07499   2890.20384   2952.14022   2912.70870   2908.53213   2951.15989   2894.16704   2920.37298   2909.86076   2906.03108   
264     2883.70987   2896.49307   2868.97691   2891.84844   2899.88526   2887.91214   2871.02781   2918.62099   2895.78581   2868.35319   
265     2867.92027   2848.74168   2894.64163   2875.93265   2911.16074   2871.17026   2904.07243   2870.43683   2885.00065   2910.43696   
266     2901.65742   2855.36736   2826.09432   2863.04825   2886.12065   2848.69694   2867.58259   2879.00287   2861.01358   2853.94870   
267     2804.76664   2813.28837   2867.44276   2873.10863   2867.92999   2834.80792   2883.16403   2853.06329   2846.77296   2810.84786   
268     2824.19209   2887.75287   2866.85158   2827.21725   2848.56615   2828.63227   2794.68048   2843.45422   2848.31157   2844.48717   
269     2733.69653   2837.27931   2776.35928   2850.43463   2851.19418   2819.93122   2818.49541   2814.10643   2802.96834   2826.76244   
270     2819.48419   2735.93088   2778.05644   2730.91864   2739.00416   2781.61320   2794.88136   2754.57938   2832.22642   2747.84206   
271     2681.54766   2750.64175   2765.40915   2707.34013   2791.51573   2718.12115   2713.83905   2746.88263   2741.60523   2743.96563   
272     2691.52842   2771.48743   2751.91838   2765.28289   2632.84704   2769.92829   2803.43075   2728.93794   2688.77358   2686.28822   
273     2644.11566   2675.54681   2638.82253   2623.44406   2715.02237   2692.93042   2762.57520   2627.50735   2727.31742   2726.53028   
274     2620.78764   2685.14010   2613.33160   2628.64323   2735.62818   2703.51656   2636.11354   2673.69593   2687.75950   2709.41130   
275     2558.55883   2528.31660   2554.23777   2644.69179   2651.56369   2576.77985   2686.41432   2679.50337   2687.25257   2611.97996   
276     2671.57530   2544.85801   2609.01086   2551.02422   2561.03151   2634.29289   2600.99964   2572.12940   2567.88069   2491.22050   
277     2578.07220   2562.81506   2533.23456   2619.19625   2595.12740   2549.89893   2471.14782   2556.70497   2562.24730   2423.72190   
278     2538.21069   2466.11198   2546.36276   2586.18369   2558.25620   2465.73934   2490.99378   2582.45655   2476.97546   2451.39396   
279     2391.06688   2478.85666   2547.71674   2505.19465   2423.00905   2566.79452   2471.19551   2587.70283   2397.07428   2472.52074   
280     2390.60964   2390.63601   2492.32737   2436.26943   2373.08927   2434.56565   2344.26193   2464.44064   2437.16604   2364.30607   
281     2323.70829   2425.06326   2388.59928   2370.55115   2365.17444   2398.44171   2280.43271   2347.43153   2415.90780   2316.89454   
282     2437.68668   2377.41935   2291.83369   2286.85680   2319.89023   2299.17767   2367.93589   2385.61862   2343.40654   2341.82733   
283     2387.23614   2256.08343   2311.33212   2335.57973   2355.23204   2344.11726   2217.73322   2291.50739   2158.16154   2392.59818   
284     2322.38806   2224.32476   2241.68435   2162.42637   2192.89342   2234.99111   2158.06103   2224.83078   2298.68518   2288.05475   
285     2220.83143   2129.74838   2254.96767   2218.10527   2249.52119   2212.04055   2257.43324   2123.35505   2158.93423   2123.35425   
286     2074.11177   2232.40984   2152.40501   2119.79132   2172.18219   2170.78017   2045.56312   2227.43620   2210.98934   2232.74891   
287     2121.90710   2012.76712   2191.51527   2207.73993   2031.86655   2061.94882   2121.07662   2063.11038   2024.66441   2166.11699   
288     1937.83170   1953.11555   2068.51773   2135.42087   2093.12616   2200.94212   2006.56247   2053.55627   1947.77969   2060.27511   
289     2110.62226   2100.52931   2023.97847   1959.06505   1952.20059   2055.94201   1958.12427   2032.12902   1955.66540   2082.47336   
290     1916.98210   2021.07303   1993.11305   2050.19624   1816.87467   2022.50362   1939.28403   2038.25147   1978.04491   1914.77584   
291     1913.22957   1945.81072   1944.68246   1876.91950   1907.27093   1910.32133   1958.34590   1784.22039   1895.36757   1939.20988   
292     1995.12872   1736.17375   1950.26851   1765.25482   1837.74486   1896.09909   1945.85605   1991.03491   1845.77666   1809.24138   
293     1710.28434   1887.79041   1719.94671   1845.10982   1746.27415   1806.70284   1905.80206   1751.28921   1806.72467   1711.27776   
294     1689.42337   1755.20502   1793.38610   1631.84869   1654.48270   1770.14257   1743.65608   1832.04949   1820.92257   1899.54638   
295     1829.38556   1774.56441   1780.32594   1664.93784   1816.39436   1637.96373   1695.83907   1795.60102   1641.80608   1598.24734   
296     1531.48582   1702.68727   1612.64554   1629.29546   1667.59109   1633.96213   1637.12460   1635.36648   1538.99879   1803.77745   
297     1662.12413   1660.77459   1655.47897   1725.44877   1725.50474   1435.19942   1652.95336   1731.28731   1644.28000   1639.26869   
298     1673.46082   1576.94518   1602.33576   1689.59908   1653.25474   1465.50039   1647.82887   1650.18273   1419.02566   1416.72361   
299     1594.41818   1439.13229   1503.71344   1584.08294   1487.51712   1438.25131   1421.03469   1599.72829   1385.29045   1510.62013   
300     1508.69461   1449.41860   1550.13672   1382.12426   1517.32459   1376.03621   1325.25757   1463.72046   1350.92164   1536.01662   
301     1475.12516   1412.59873   1429.80876   1410.75168   1446.30535   1432.31331   1339.63305   1438.91556   1387.86081   1456.78633   
302     1334.88564   1200.38574   1411.23016   1374.61173   1431.49874   1380.53291   1336.60670   1436.83114   1473.74550   1312.02965   
303     1330.49278   1177.26390   1477.27920   1186.58117   1481.04494   1487.51394   1417.02783   1332.80017   1429.06710   1206.98705   
304     1299.03295   1337.39762   1204.07808   1386.99041   1354.78708   1245.31637   1279.76063   1351.18878   1254.37799   1169.88741   
305     1238.05725   1388.84022   1239.49096   1261.73551   1249.26588   1143.38686   1116.14592   1267.39475   1261.68090   1155.56943   
306     1323.51248   1129.48848   1096.50991   1121.58295   1234.44025   1191.58372   1156.66568   1086.11376   1283.00244   1198.14128   
307     1065.46145   1161.27049   1203.71961   1132.86119   1301.79958   1066.93724   1039.21429   1287.98326   1133.56661   1201.24485   
308     1259.54514    968.02480   1025.83711   1140.37837   1091.41419   1113.02050   1161.88879   1064.51947    977.95440   1066.21684   
309      920.58324   1085.40707   1170.58054   1223.36043   1050.27429   1135.41311   1074.57615   1071.55393   1114.18034   1180.02299   
310      971.86990    936.23720   1016.42881    951.30159    995.40962    947.34016   1019.67751    883.31803    922.82328    945.42386   
311      890.52790   1026.36618    899.04875    968.45833   1034.58288    994.35050    909.00959   1062.13438   1042.52635   1056.01018   
312      975.43743   1036.90915    967.33049    858.24536   1013.76214    848.75259    910.89284    926.73989    886.61664    991.64499   
313      946.02065   1007.79673    837.71767    923.71430    900.42083    848.92712    965.91640    886.49227    868.32852   1037.89755   
314      885.34402    878.15328    933.76092    753.38590    910.58699    903.70748    926.69209    995.13378    930.02436    904.87933   
315      785.85798    788.41536    856.39194    878.09833    914.15876    882.19914    734.02140    938.22449    989.45591    838.88320   
316      837.75602    823.90379    730.33442    693.76534    799.76039    833.72138    839.12758    789.72164    908.97598    869.15847   
317      806.55628    772.48325    806.29345    784.95615    828.74052    694.68058    734.58256    894.64718    794.59787    822.88435   
318      676.07252    784.84152    695.62646    687.38059    762.02674    689.25591    735.79867    741.25210    737.40106    727.61254   
319      742.84649    738.92562    669.02143    779.65135    706.07690    666.43762    658.58238    645.57660    746.32265    674.04378   
320      640.81808    743.95411    699.98973    662.23605    681.76016    646.89688    714.34294    613.03219    755.73555    762.93319   
321      587.76917    683.15673    619.30055    713.13371    698.52997    666.63141    714.46023    569.45827    705.00356    662.97122   
322      577.79902    665.52715    581.58437    596.03362    636.09173    637.69859    696.15183    647.26515    660.98157    566.91506   
323      627.44750    575.28584    554.25676    554.58557    651.06453    578.59084    532.47528    566.29507    654.37783    669.58710   
324      583.80930    540.23644    567.15158    593.94624    616.25635    563.48064    555.95809    665.51741    615.16154    652.72468   
325      618.47520    508.22874    564.41870    564.03471    637.02136    606.05993    571.33851    551.31519    613.53960    529.39525   
326      611.23601    590.73122    542.42004    602.99733    577.06184    446.62889    524.54338    564.87611    562.05344    608.49042   
327      490.46904    436.50613    523.23710    568.62613    502.98126    487.86707    592.63065    514.70592    553.23467    530.99918   
328      488.93461    521.40920    501.85770    475.03827    478.40350    507.24047    572.43255    433.08863    492.96825    427.04238   
329      402.88460    464.86248    501.00158    561.59560    504.03478    431.10110    413.04640    455.53983    503.11147    451.79332   
330      432.07664    387.15320    508.39363    419.85590    400.60947    428.91270    442.23155    484.09456    453.81212    417.68049   
331      470.08841    371.43790    474.33836    418.14847    492.84391    403.04170    428.33455    482.28327    389.93190    381.75503   
332      368.76369    446.77231    393.97442    421.01540    387.01954    489.41157    378.16896    447.80488    421.62927    352.69520   
333      445.61326    445.62339    357.93505    384.01032    323.73564    361.06209    369.15273    380.17837    459.64183    343.38730   
334      373.70139    345.29841    393.76527    364.19499    377.46720    376.46445    414.86412    410.76640    328.06294    301.85020   
335      284.51182    367.55321    361.78052    346.42873    324.29409    364.78458    379.18428    356.54055    382.80293    296.55779   
336      334.07659    372.70618    285.59981    362.51835    324.20719    305.72043    418.23475    371.55111    384.60451    352.71500   
337      384.99647    306.82279    355.00117    347.87360    380.02507    339.89458    361.70207    313.37596    303.89534    310.87773   
338      338.80896    279.21378    275.45746    302.12995    325.85106    325.92886    305.47822    316.84120    377.09398    316.25686   
339      315.82400    279.60030    290.18085    364.56459    275.24384    281.48266    308.25906    356.83343    332.19292    260.45740   
340      242.19937    289.72052    282.53435    248.85266    312.51866    284.81913    280.60862    298.02706    321.87285    266.73232   
341      245.98877    288.85069    271.92681    261.66564    266.45327    339.57197    246.80745    291.91341    254.50787    275.39528   
342      242.93066    273.39382    258.80288    234.01751    252.68387    238.57465    258.85144    263.68562    257.35275    270.93657   
343      250.31307    288.09938    230.45469    263.82851    244.94872    285.88783    271.10217    274.17741    277.36948    242.35401   
344      284.34810    256.06869    232.43561    231.75723    221.18189    256.35658    244.21590    250.88453    271.14001    251.41664   
345      243.50288    276.80576    247.78308    255.56304    194.44867    283.60575    241.71836    244.32122    198.78219    258.88769   
346      233.79401    193.28148    210.11470    257.61379    210.96689    215.75741    220.15283    217.29702    249.85092    246.88942   
347      220.79216    252.90016    214.79008    249.45763    224.15099    211.69579    217.60310    198.46256    241.78461    250.80751   
348      220.37514    173.25924    206.30789    201.37318    214.67388    191.57150    260.78128    217.26072    210.38197    212.43599   
349      183.70407    242.71046    180.22423    193.00663    192.84018    212.89076    182.52321    219.10927    229.20891    204.94801   
350      182.28703    200.33211    223.59973    182.48037    221.32826    187.54639    206.24287    219.62058    229.71049    187.42870   
351      186.85045    206.72730    226.13932    186.71431    185.15036    222.62777    184.36977    184.67556    204.10735    223.26824   
352      176.57891    210.54450    202.53670    196.30014    161.89780    170.40157    195.70184    187.08341    189.70162    175.84574   
353      202.16242    175.87887    195.40153    175.91055    195.16194    182.87328    164.80590    161.74666    173.19140    194.70531   
354      167.89974    178.08187    160.43079    182.35598    163.19793    177.39443    202.89155    200.05180    184.40291    163.46110   
355      150.66384    183.68569    163.91823    194.07363    158.48943    183.29868    184.22084    159.78849    165.32687    158.30965   
356      186.13616    155.36894    163.69815    185.05913    174.99854    157.69108    177.35444    188.24496    179.47041    172.17770   
357      175.23118    143.51981    174.82529    188.33143    161.05804    190.79316    155.07605    152.07335    175.41793    157.56777   
358      162.67516    173.72632    142.29492    173.85110    137.79769    157.72648    153.56993    158.52902    157.12661    176.80647   
359      174.60264    144.61795    164.37518    173.68593    170.76519    170.93101    162.27351    170.63191    157.79295    182.97199   
360      158.71748    152.38813    162.07762    144.96150    156.28591    170.68030    152.22219    164.92199    169.42753    160.12685   
361      165.09764    140.99492    145.13388    152.78820    144.21726    155.62388    153.10296    159.30538    146.18614    142.24987   
362      144.41184    137.47026    167.86154    141.89857    145.44577    151.93970    148.57163    173.36013    150.45997    154.32387   
363      146.64360    153.77480    153.78570    140.96703    144.09686    150.55166    144.70080    136.60027    159.31026    147.12253   
364      139.18572    149.92061    144.40932    142.72569    132.37730    159.69856    143.33744    138.44248    140.32881    134.73138   
365      146.07177    146.83178    134.91277    150.97865    156.68317    132.28388    146.27955    139.16563    153.85200    151.22422   
366      128.68254    140.92381    138.87667    129.83457    133.33826    144.86588    143.84146    143.49295    132.72951    146.39552   
367      141.21154    148.25503    141.01129    127.28452    129.79071    129.52559    128.02341    144.55335    141.58988    139.82754   
368      137.27833    145.85209    128.07468    135.70680    141.07113    128.85888    127.25031    126.02712    128.45015    152.99457   
369      148.46023    127.27278    125.01595    130.67041    130.01692    136.01590    136.55362    129.51667    139.48289    129.48078   
370      123.63259    133.69220    138.54839    136.35324    123.06491    124.59211    129.69158    134.57441    146.83310    129.19732   
371      137.29395    133.03521    135.12182    141.39218    123.70785    131.07084    129.08780    126.28058    137.88911    132.36684   
372      123.54416    130.55391    136.05980    134.22158    119.22356    129.66711    134.69970    136.15654    130.41795    133.53788   
373      140.95316    129.14669    119.57072    124.67354    120.40382    132.45274    133.36747    123.68260    124.15498    124.83522   
374      130.13433    125.75316    133.12697    130.32777    116.90053    125.04674    135.46457    120.12923    132.59271    137.53831   
375      120.79002    125.06006    130.47507    126.07542    130.64722    136.38865    134.40189    133.03334    127.18387    132.69312   
376      129.36688    123.17615    126.85014    117.38731    129.80399    123.12343    126.75087    134.91460    126.84854    122.93883   
377      123.47453    126.77438    126.09400    131.50606    122.08156    127.25418    128.61872    125.70281    131.79940    125.04073   
378      117.07987    125.41069    117.90071    125.91250    131.35811    119.44981    118.37832    124.63407    123.17549    118.49502   
379      127.39962    128.21211    121.16710    119.84529    126.46903    123.04883    126.60119    121.61176    130.44775    125.42752   
380      127.41826    124.22061    134.44576    121.62995    128.29488    120.85572    127.31829    120.93648    123.66686    119.60390   
381      118.65286    125.13030    119.10576    117.67290    133.34057    121.29923    118.17945    129.78761    117.73934    124.39265   
382      124.83582    124.89898    125.80438    124.65747    119.78250    119.31073    124.22043    124.57430    123.78982    129.12437   
383      114.57594    126.80690    120.96062    122.39203    119.74805    122.95518    118.98664    126.01575    118.97778    125.31282   
384      113.30160    113.45492    120.32145    124.70154    126.47733    124.01081    131.77322    120.27343    117.01802    120.08634   
385      119.72822    118.04304    117.81872    123.24673    120.59499    119.77398    121.19625    127.49841    121.22344    127.59613   
386      116.40310    129.88642    117.97033    113.56420    124.49341    121.34369    115.80183    122.24561    120.95269    125.87761   
387      118.73068    126.14854    125.83778    125.08027    122.40283    123.14918    125.82410    123.13302    118.37454    115.78372   
388      120.24171    118.06439    128.07807    114.08433    122.65643    117.66190    112.98683    121.75666    121.94318    118.20814   
389      114.33343    125.42447    122.23101    121.86297    123.17851    124.79684    123.44035    117.45240    121.80286    114.76401   
390      121.78190    120.67088    114.85179    127.57520    126.53087    123.92771    118.41010    123.19928    117.31064    125.29682   
391      115.60935    113.74084    113.77444    114.28160    121.61697    121.28543    113.46743    112.73153    124.84579    119.47377   
392      120.56377    117.30300    122.70418    113.53242    117.53312    112.81190    116.18205    121.13370    125.12882    121.54285   
393      118.29362    119.56264    125.13554    124.72872    125.87058    119.82481    124.57683    126.22742    115.66012    112.60349   
394      116.10105    123.80708    112.61563    123.28966    124.36798    118.55621    120.26777    124.19834    115.45713    117.12863   
395      114.30868    117.75730    119.00746    123.43455    116.48493    113.42573    113.61509    120.99529    113.50949    114.73692   
396      118.40261    123.21107    111.46398    118.88646    124.39467    121.92321    116.08504    119.99610    116.04658    123.68355   
397      123.00899    124.63340    116.77904    116.67899    121.31455    115.81046    116.84050    117.28860    123.86038    124.40063   
398      114.88966    119.96768    122.64953    117.39342    113.80030    115.88490    113.12436    123.79176    112.91038    123.76406   
399      117.19381    124.92042    110.99085    119.00551    121.42691    115.70295    111.45827    116.01895    125.71488    113.92149   
400      111.47819    115.29345    117.02664    125.01779    119.84289    118.15183    125.42242    114.49136    116.86986    117.00014   
401      118.62891    112.73305    118.04250    112.16576    123.30653    115.76877    118.62680    112.18735    110.50712    125.14607   
402      114.29607    113.02675    121.67714    123.85612    112.32508    121.36695    115.39384    118.05120    114.45903    114.93699   
403      113.61900    123.12832    114.63186    111.51811    111.82523    112.33427    118.72384    111.52777    113.17002    113.93165   
404      120.36470    112.35312    111.66888    117.82512    111.58724    112.91735    114.03189    112.72173    123.88178    122.20408   
405      116.32914    124.47538    121.66574    112.81136    118.46071    124.04053    112.80626    111.66962    123.51594    116.85355   
406      122.87298    121.16437    119.64505    125.08743    114.82263    116.15018    119.99010    119.68292    122.96288    123.25578   
407      122.43788    123.69575    123.95911    125.03852    116.35740    122.28776    114.29232    114.98522    113.11017    115.49459   
408      120.91990    113.08801    116.28665    123.11718    111.20602    113.66941    116.43933    114.70634    124.66970    113.55563   
409      114.16383    114.58242    113.01108    110.37857    120.44260    120.83861    120.88355    115.46770    116.55479    117.70416   
410      113.39313    118.00179    123.30912    125.24274    110.45957    121.59504    117.56271    117.05207    118.13605    124.30328   
411      119.13162    122.19543    120.10313    125.01052    112.55947    114.70320    114.90659    120.86569    118.30813    117.92388   
412      120.29930    116.38934    119.20322    121.37664    114.38630    118.64583    122.69539    122.38981    120.14741    120.71388   
413      122.40902    111.45138    121.19667    124.55070    113.23343    123.12427    120.24032    120.09111    114.05065    110.82946   
414      120.44811    123.76468    115.93153    123.76818    117.14410    123.38610    122.03824    115.44923    116.71592    123.14928   
415      111.31587    120.13792    116.57864    114.41230    113.42778    119.68506    119.35122    116.21083    121.37457    110.39642   
416      114.92234    116.74383    114.34068    110.22761    116.46945    123.00401    123.86403    121.43475    114.53403    111.83237   
417      119.79494    118.06645    125.05911    121.34951    112.28567    110.27534    114.62274    116.31556    119.37411    124.98762   
418      122.35854    114.39784    123.24150    122.77869    124.78579    115.37749    114.00347    123.24157    111.56209    115.59932   
419      117.84423    113.72145    117.19181    121.77103    121.02480    124.15583    112.51494    112.25034    123.50177    123.31825   
420      118.16166    111.17564    119.52678    116.41683    115.38869    115.69369    121.74852    112.80150    121.23920    112.85720   
421      110.81643    120.60840    117.36271    119.10460    124.01241    124.18095    114.67905    123.76443    110.39340    118.87374   
422      113.75054    117.18215    116.80129    117.90042    117.74729    120.62786    119.31400    113.43831    124.77699    117.76350   
423      122.07887    114.52165    119.99027    112.07556    123.86469    117.76794    122.57656    113.36183    110.56358    110.88116   
424      122.52979    120.01588    120.16437    111.20897    116.61720    117.05463    114.22963    113.30297    121.52442    111.37962   
425      122.20204    110.45564    116.56918    124.35120    114.87995    119.10318    120.21584    114.31155    110.45743    112.63316   
426      119.86805    119.76862    112.83649    125.01643    121.68610    110.73120    113.44998    122.17855    110.61285    113.98784   
427      122.03650    125.01220    113.16834    112.62701    115.39995    111.74230    121.89103    112.28045    124.73404    124.27591   
428      110.07989    122.61397    121.28297    120.43732    111.65048    119.40639    110.56859    117.68041    121.56846    116.11950   
429      111.30512    117.31354    119.57477    115.31348    117.68102    110.79074    114.53973    113.79036    123.54031    123.74437   
430      123.13381    121.25889    111.45764    124.93856    112.79768    111.12715    110.26339    110.08455    115.15524    119.15854   
431      120.82084    123.89495    111.59948    123.00662    120.87101    114.29984    111.42299    124.78396    119.45844    113.70115   
432      122.19089    124.04006    119.44505    120.17999    122.57595    113.76136    111.42348    113.57978    121.02194    122.28001   
433      122.15481    116.13930    113.43282    115.53444    113.20357    118.86925    113.78758    115.42350    120.03597    122.26441   
434      118.87493    115.84966    120.81806    120.63734    113.45240    122.14623    114.22849    116.62364    113.48952    122.59978   
435      120.66067    110.04973    124.24699    124.24080    116.18361    110.50081    116.87688    117.19943    124.84881    113.61013   
436      116.82973    113.16550    123.78245    111.82510    117.24908    121.64686    124.01809    122.25573    124.97319    116.40324   
437      121.83818    116.89697    112.99024    115.33929    116.29725    119.51196    115.23555    120.04896    111.83975    115.41852   
438      122.00020    124.99791    118.71991    120.39222    122.46068    118.76420    115.23374    114.20636    112.95023    120.98166   
439      116.32830    110.62442    116.12747    112.16178    123.01730    116.88771    118.68644    110.56246    124.28735    121.34347   
440      117.86004    114.39514    120.27802    118.10307    115.75042    120.14888    112.86907    111.34905    121.51254    114.16582   
441      119.09445    111.87656    110.16023    111.76849    121.42074    119.44572    119.13434    110.42898    123.20783    122.06842   
442      121.66383    121.21805    121.19652    115.14656    111.67676    123.54495    120.68625    114.66968    116.04841    114.71296   
443      124.51927    123.62620    116.99233    116.61745    111.68809    112.40886    119.80138    123.78054    115.54459    118.98827   
444      114.90719    118.13830    116.12553    113.17046    112.29047    112.91617    122.54382    124.11398    112.50777    122.16128   
445      111.22139    123.90011    112.35930    118.21149    114.12185    111.68559    117.22407    122.19180    118.84431    110.35845   
446      111.62813    123.82702    116.24966    113.24446    122.38914    114.48797    110.65880    119.09808    116.75262    116.31939   
447      120.05688    124.53247    112.90205    114.63130    116.16043    124.65671    113.93376    112.68526    114.95495    115.68775   
448      112.34291    121.30554    110.64118    122.92204    123.75011    120.65341    114.34413    123.79217    124.17399    120.15223   
449      110.84527    119.95041    111.55381    119.07451    119.18766    113.79691    113.69143    113.91068    122.43145    120.54741   
450      110.70577    113.85356    121.87031    110.13507    121.85571    116.26010    115.43429    121.35587    123.15185    119.73695   
451      118.09948    111.45991    118.82160    120.22404    113.30891    119.05036    118.75716    123.15105    118.19735    121.33540   
452      120.90778    118.70688    113.59354    120.65327    118.04491    117.38243    113.75558    116.12851    118.90255    117.03615   
453      122.80756    113.47001    115.46139    113.42606    118.18741    114.40677    110.76220    124.43474    118.82910    121.36280   
454      114.90861    121.27028    110.66771    115.57261    112.76097    112.56451    118.37400    117.08693    124.46017    114.06061   
455      114.34048    117.82939    117.16711    116.67998    116.67312    111.21536    111.92835    110.71121    113.62524    120.84590   
456      116.52053    122.97699    117.78654    111.22744    112.03382    116.76340    113.21708    111.22076    119.02466    122.30251   
457      122.45173    116.21019    111.39557    124.85761    123.26012    110.11867    113.34690    121.46218    112.85440    118.70796   
458      110.77458    112.14498    110.83013    121.69694    124.14326    122.16858    120.51375    115.76615    120.05418    115.21116   
459      121.82175    110.99090    117.00954    121.44639    119.72181    116.92549    111.94223    114.23803    112.04609    112.10340   
460      110.87329    118.14946    110.88526    124.23120    110.97000    118.24910    118.03131    122.46924    116.24034    118.78796   
461      117.73809    122.30393    111.33084    123.67120    111.98311    124.57889    121.07745    116.86716    111.45244    117.23712   
462      114.24900    124.70757    123.21260    122.04508    120.98007    114.84654    117.69333    112.37618    122.71317    120.68736   
463      119.27111    123.16713    119.25535    120.10765    123.42012    113.83252    117.32115    121.43282    123.34235    123.78751   
464      118.51576    119.41262    119.99045    121.04911    123.58976    110.63852    113.51942    110.42252    115.33720    113.96273   
465      110.03727    119.02465    120.03790    112.16897    117.84983    116.98630    114.36288    118.57953    119.11470    119.45046   
466      124.68356    121.41284    110.97619    113.77308    116.16790    122.59217    123.97379    117.41812    122.00077    112.54066   
467      110.58019    120.42463    113.45178    117.89727    121.66319    111.63899    123.30786    113.19990    110.70795    112.35689   
468      116.54852    115.92923    113.19467    123.12442    120.60585    113.35853    113.21237    122.06118    122.71003    114.61398   
469      110.93057    116.11188    120.38231    119.69693    123.85489    117.61764    113.52552    115.26366    122.41581    119.55277   
470      118.45216    114.49094    111.51581    118.44724    112.95578    120.05781    112.81263    113.62836    124.50235    124.55989   
471      116.98795    124.31374    112.17479    111.46323    122.09399    115.49027    112.22721    117.90537    110.04496    116.24399   
472      114.00639    119.21026    124.43903    112.66028    117.45122    124.62088    121.01877    123.46216    116.58509    123.97733   
473      123.85641    122.05411    117.04650    119.08089    114.46791    121.63391    118.67976    121.19618    113.63959    117.82125   
474      117.68617    112.43559    123.95649    115.46040    124.43966    121.46319    116.01817    124.22286    123.46981    113.53670   
475      112.56085    119.89764    110.24719    116.85946    121.61553    111.68187    110.83616    124.97810    123.78897    121.76451   
476      115.02301    122.34152    124.10705    110.25293    118.95379    124.49690    110.62111    121.34075    113.48329    114.23151   
477      124.01148    111.09413    116.28209    116.31892    113.74403    117.38275    116.60487    114.59318    119.14826    120.81282   
478      123.62609    119.78147    116.49148    122.25509    113.64297    116.85564    112.05566    113.63308    111.29551    124.17742   
479      111.49031    118.07380    112.32721    119.33063    117.84316    124.43080    112.24325    115.77309    122.69426    115.46747   
480      124.68492    110.30168    110.24438    123.87091    120.71670    119.21357    117.88080    114.98735    110.92854    119.62789   
481      113.49171    120.29143    110.18630    114.02726    123.39103    118.83099    116.25875    118.40587    124.05258    121.60682   
482      116.91806    115.17238    115.81475    121.98327    112.46220    118.56310    118.91148    110.68799    124.18397    113.51420   
483      112.77416    122.26587    112.16591    120.70266    123.31250    120.03703    120.00059    112.45483    113.23068    114.18157   
484      112.84983    121.93116    123.75056    122.68086    122.86783    123.00169    123.06889    114.04043    111.60575    118.13446   
485      115.83455    120.43730    118.42659    120.17681    119.67868    113.99150    122.85228    124.12290    111.65641    117.55334   
486      110.94407    113.58378    117.09472    111.94556    111.18745    110.77428    115.76227    113.68350    118.34618    113.67839   
487      114.31891    114.39348    118.50521    122.38073    122.33638    122.01231    110.72196    110.00457    110.98315    123.29195   
488      117.60061    114.14837    111.13983    124.63560    117.73857    121.81413    116.86340    112.33417    110.59847    110.52028   
489      110.36249    120.82551    119.67600    117.59859    121.91204    114.69551    123.54915    113.22532    117.16785    111.33471   
490      116.61905    118.94716    124.95341    119.56513    123.38569    119.81638    115.23638    124.74398    121.67621    123.58761   
491      113.39038    115.30263    114.70996    118.46213    121.93668    121.44756    112.70680    110.05609    112.40989    119.50172   
492      120.95849    115.93521    113.07777    112.76535    110.97327    111.26281    124.57182    116.44191    123.45917    119.27474   
493      119.58689    120.92527    116.57969    112.86440    121.60496    120.86409    118.05839    120.49608    122.29851    122.95080   
494      112.90933    113.27272    124.22659    115.82904    117.42804    112.98382    111.98673    117.24190    113.55573    118.36942   
495      121.99579    112.70360    112.16630    120.45822    110.14249    117.70968    120.10575    113.54865    122.05674    120.39786   
496      120.33297    116.04454    113.12826    115.98296    117.03806    111.56928    122.24542    115.63422    113.90495    118.47401   
497      124.08689    122.85442    124.35135    120.36526    113.22664    110.65111    117.13203    111.80908    123.07202    111.36446   
498      111.95995    117.16089    122.94501    110.80130    110.27851    123.78956    122.96121    120.81306    116.29436    111.06686   
499      116.19835    113.56470    118.14428    110.13165    122.54177    113.14831    120.59651    118.27970    110.46284    118.77699   
500      115.75957    113.51616    111.38463    117.72707    123.22053    124.28811    123.54115    113.60857    115.02077    122.06047   
501      114.68169    115.60185    122.51693    124.82431    116.87665    122.65759    115.47904    123.58976    119.13244    114.06222   
502      122.56095    124.88402    124.16904    114.54728    112.66048    119.34186    112.23271    117.71253    119.38800    117.47319   
503      120.29363    123.95231    113.42939    112.35824    120.87714    110.37089    111.35972    123.14378    118.87563    122.23885   
504      120.48584    120.72467    113.02554    116.08430    121.79273    110.48232    123.79091    114.01966    118.56467    119.96712   
505      113.68441    115.80367    110.42350    116.20749    119.81989    114.25821    117.58688    110.18669    113.08650    116.64098   
506      118.09866    112.15985    124.41056    110.81333    117.28776    119.97545    119.46163    123.07389    121.93590    119.34412   
507      116.01857    110.22213    119.10223    123.50743    119.69245    124.46661    112.78009    119.47888    118.41900    117.82161   
508      121.66396    121.14102    124.98830    122.05663    115.88652    112.71300    117.37625    114.02930    122.91205    119.41642   
509      112.29179    123.50032    114.23480    115.67023    115.22642    117.01252    117.99413    122.21776    123.06594    111.49683   
510      118.44957    112.08240    124.97638    122.83948    122.03779    110.12903    118.71238    118.57470    114.36641    122.45398   
511      113.92884    123.46614    121.63306    124.19432    115.45069    120.55263    115.67382    112.60649    117.77389    120.95659   
512      113.85699    115.42703    120.31777    113.94479    122.98936    123.54804    110.43671    119.96052    111.18203    119.10975   
