SLC Damping Ring Gated camera results.  10 e+ verical profiles at I=1.25mA.  
The distance beteeen each pixel on the gated camera is 1 micron.  
Pixel    Pic1(Counts) Pic2(Counts) Pic3(Counts) Pic4(Counts) Pic5(Counts) Pic6(Counts) Pic7(Counts) Pic8(Counts) Pic9(Counts) Pic10(Counts)
  1      113.97727    124.91581    120.16799    117.29636    121.93216    123.94060    121.49263    116.43497    120.94621    119.28694   
  2      115.69440    121.51323    110.43396    123.81183    110.82904    110.85402    121.60649    113.03827    123.27271    115.06682   
  3      120.05394    120.49619    118.85329    117.71080    121.24438    115.51023    117.51352    114.63239    118.06956    118.94153   
  4      113.32024    115.75221    123.19233    114.55895    116.06095    120.07068    114.48612    116.14869    117.88147    112.30396   
  5      119.28806    112.72829    124.30220    121.85112    121.51694    116.64433    115.32915    114.08335    117.92336    111.46949   
  6      123.27951    111.82156    124.43281    112.17981    115.07039    110.43960    111.13854    124.73796    110.22083    118.34329   
  7      113.82785    116.18758    113.50619    115.28967    124.34905    111.75697    111.05960    119.08199    121.46813    122.00783   
  8      111.90575    116.94741    122.59370    112.78815    121.57658    123.53092    123.92225    111.11882    113.68126    112.79074   
  9      112.86715    111.74079    122.15753    115.75696    113.80655    118.73749    122.92425    112.58988    114.10323    112.77472   
 10      117.40385    120.05065    124.84489    123.58885    119.57051    114.95546    115.14186    114.79093    121.93029    117.41152   
 11      120.08246    124.66344    118.46465    120.68057    119.05909    110.16720    124.34418    123.87968    120.72391    112.19238   
 12      110.72104    117.54509    114.74620    112.36451    117.53392    121.85319    112.31634    114.65967    118.54372    119.82133   
 13      113.32849    113.39637    119.98042    111.29456    113.71613    117.51895    122.09761    112.11913    120.94301    123.49794   
 14      113.25408    115.13286    118.65917    116.62352    112.84160    113.47517    110.61731    124.39044    115.52849    121.31943   
 15      113.76459    112.69168    122.46579    112.79196    115.32069    114.23530    110.71341    121.31580    116.14349    122.95488   
 16      120.72316    114.35840    115.83304    121.12902    122.02577    121.61142    121.40146    111.97205    113.85138    122.90576   
 17      123.38479    110.99281    121.25157    123.59457    124.36727    113.56988    121.49479    116.96586    122.09501    112.54139   
 18      113.80353    112.73167    116.42792    117.40051    120.71782    111.15508    124.28849    118.74041    110.81493    122.47632   
 19      113.81675    111.13239    116.90381    120.44370    119.80185    119.22062    117.94732    118.27907    124.10934    123.96060   
 20      116.51293    110.34975    118.01786    119.15232    111.85848    119.34869    113.93502    113.50085    117.34862    115.52614   
 21      121.60912    121.68319    123.02639    121.39959    121.89054    111.21184    120.10448    112.81915    116.20919    113.55611   
 22      111.09220    118.51178    124.48916    115.35944    112.55564    122.31407    115.81220    111.92303    120.36756    115.98036   
 23      114.62916    124.11190    111.14601    112.43085    110.49488    117.45144    123.86836    114.08952    119.12687    115.39861   
 24      114.40249    111.40605    121.27206    116.43152    120.09273    122.15686    123.63336    113.50491    118.45659    121.47842   
 25      118.65456    114.65122    121.00202    114.80805    123.33628    116.75644    117.55742    116.47735    120.83643    121.71964   
 26      112.87229    114.55320    120.38492    124.15049    114.67323    119.26393    118.06130    116.38581    118.34031    116.05349   
 27      123.75581    120.25244    124.36373    116.92469    121.33875    123.53253    121.47908    119.11313    114.81074    119.83676   
 28      112.10302    117.07658    122.24607    123.49409    120.92167    116.77574    114.80538    117.17598    113.95421    112.42388   
 29      120.31911    119.45037    116.48542    112.17298    124.82040    122.07891    123.57197    114.37629    125.18379    120.54138   
 30      116.36414    122.38841    110.35713    117.37608    123.82742    118.35906    124.62310    122.95252    123.76654    112.33013   
 31      114.23180    122.42961    115.78745    122.45998    122.54284    115.76092    124.95489    120.66891    120.18134    111.89887   
 32      110.41094    113.24640    112.53307    124.04408    113.17678    117.28067    119.69342    116.59044    122.98039    113.92224   
 33      111.13252    115.91617    113.24678    111.23922    112.44600    123.94869    124.43911    121.96134    113.66658    114.52073   
 34      114.27849    119.66036    121.89682    116.55423    121.31913    118.52618    119.61184    124.62286    123.73379    115.40965   
 35      121.78540    124.50477    113.41182    123.43460    115.27134    116.63822    119.04241    122.15651    115.50243    112.45779   
 36      120.32881    118.18944    115.56201    119.87703    110.83210    117.17929    123.42745    114.37468    115.47118    115.87494   
 37      124.79200    115.93088    117.41306    119.20105    111.71268    124.85026    123.81202    118.97479    117.56295    110.54227   
 38      113.15673    118.11395    117.34886    111.03506    121.63090    125.20079    124.47957    113.29743    112.87657    119.98063   
 39      120.82934    121.96684    115.35817    123.04027    119.43597    119.51858    123.83777    123.97946    118.12707    114.41935   
 40      115.95555    119.23862    123.45285    122.16600    113.87846    116.28492    117.33410    122.33801    118.16596    113.56056   
 41      117.33084    125.47069    121.12207    120.89119    113.07481    119.57135    121.66280    111.61756    111.65658    115.80863   
 42      112.51552    117.49975    111.38326    116.33508    115.08616    114.26951    114.97600    118.64349    124.78899    122.78119   
 43      112.73253    118.11687    120.00124    115.02704    116.60608    116.20964    111.49011    116.99400    114.64235    118.41372   
 44      119.53044    117.78010    111.74078    112.00606    117.58621    124.76930    116.57136    123.89175    114.19568    118.64898   
 45      123.57747    120.01416    122.49969    120.44664    122.11536    117.82493    118.59677    119.21197    120.73071    119.08703   
 46      117.89790    124.19651    116.32448    111.42814    119.72329    124.03984    116.42641    120.06352    121.70057    123.61053   
 47      112.55362    114.73788    116.93925    119.91282    111.86985    111.15682    116.74011    119.45679    121.56871    115.94522   
 48      113.34216    120.96653    113.77128    113.96449    111.11396    113.42284    121.83412    113.52054    114.40383    121.16350   
 49      122.11169    117.61355    121.60708    115.37700    125.56152    112.51836    115.58649    123.19230    121.98559    115.38504   
 50      125.17721    112.78304    119.28334    113.78757    112.86605    112.99144    124.27150    114.61626    120.65542    121.30694   
 51      111.77716    115.66636    125.15881    121.21888    125.38961    119.89737    121.18410    124.93409    122.53195    121.94504   
 52      122.31155    117.30490    112.17811    116.96423    123.32294    116.55935    117.65946    125.61788    117.93332    117.88910   
 53      115.37446    126.33039    125.33925    124.07680    117.10043    117.74097    124.32380    114.45887    113.69905    116.91524   
 54      123.63014    120.93615    113.51432    124.12039    116.07168    118.06607    122.58550    116.40083    111.91823    122.95707   
 55      118.40717    115.80683    117.17867    120.98617    119.18065    116.04201    112.51339    125.51939    115.50535    124.16458   
 56      122.52873    120.28706    124.26340    116.54929    119.33651    121.13523    118.24416    126.34839    115.03686    116.94023   
 57      124.54416    122.50084    113.38679    116.36143    117.59632    121.03587    116.51110    125.00946    113.74275    122.93117   
 58      126.78902    115.45451    120.93630    120.51662    123.42678    111.97523    114.16357    122.77533    119.83657    118.96710   
 59      119.86998    127.49406    114.62498    126.77210    126.35718    123.36311    115.67370    127.02450    121.04354    113.79515   
 60      125.02189    120.85238    112.71046    118.50702    123.05430    125.75255    111.76569    115.64622    114.21754    115.19192   
 61      115.26418    115.45753    126.61049    122.51496    120.46418    121.49060    117.98750    124.91428    116.68336    121.11664   
 62      119.71683    120.07587    123.34898    125.62299    120.60519    121.31951    125.31179    119.56759    119.41021    126.46981   
 63      116.89099    124.13347    116.60456    117.37136    121.98765    116.08888    124.44786    122.98136    118.63955    125.45517   
 64      113.94461    127.13264    124.80308    115.74432    119.74669    125.44956    127.43787    116.63978    115.27854    113.64895   
 65      127.94443    123.04032    118.55452    117.45311    121.88308    126.42020    117.81310    115.13439    123.15213    118.60899   
 66      120.82545    114.34358    121.99313    116.24640    125.63541    118.30713    115.90258    127.59266    119.10857    127.07356   
 67      122.05052    118.64835    122.85721    118.25057    116.07167    123.75550    125.65829    113.53629    128.44699    125.60895   
 68      127.43858    119.07917    123.34716    123.58452    125.67329    116.42159    116.96866    119.07783    127.90469    115.96897   
 69      115.41535    125.32339    115.99100    115.58981    122.26290    115.57658    126.34058    122.73875    128.08368    125.22992   
 70      121.79454    126.95269    123.78774    131.21621    117.29826    125.59528    127.20616    127.57049    119.20223    118.35104   
 71      122.02705    122.32461    120.43300    120.76223    117.54115    129.21891    121.84988    128.97209    114.76390    124.93772   
 72      121.37114    129.07652    124.45011    122.77813    126.86480    127.80028    126.08881    123.37289    122.54675    127.19280   
 73      122.10243    118.85230    130.28454    117.29853    126.09748    128.52804    122.87094    123.87785    125.31898    127.53548   
 74      129.17838    126.01267    128.80552    133.09275    119.96385    126.86989    127.19966    130.22016    123.74626    117.59081   
 75      130.36355    126.48672    125.26440    123.97554    123.21115    128.52557    120.73808    118.74618    127.74504    120.36715   
 76      123.30831    125.92251    128.93807    122.64691    126.44139    133.35460    121.71054    129.47676    122.83916    122.57087   
 77      129.56958    120.71844    124.39959    121.86338    129.40580    120.77178    126.86280    130.78086    131.91371    127.52719   
 78      129.98567    134.33918    133.49541    120.96197    124.06599    125.82783    121.03562    120.13946    120.00056    136.18637   
 79      122.90197    124.91606    123.47745    130.95110    131.15098    120.45506    129.50183    136.20928    122.80304    127.30562   
 80      130.16472    129.21985    127.34514    133.72432    123.55875    125.92167    126.64194    121.85350    126.04477    133.75297   
 81      124.16308    124.40257    135.12476    134.80017    125.72814    129.32251    123.41868    122.95798    125.69340    135.65132   
 82      130.45159    133.96911    126.59121    129.05402    133.88660    127.00257    134.38251    133.45510    126.06723    125.15355   
 83      136.31745    126.83434    133.64758    124.15670    129.39796    130.14987    135.38183    128.66578    133.59042    133.56753   
 84      130.27853    133.03890    130.20719    127.45553    131.27318    124.24003    125.12410    133.84079    135.37405    127.26414   
 85      133.24445    140.80415    141.68731    128.29112    131.87967    139.32102    125.95130    132.78654    133.16039    137.06213   
 86      127.46355    128.70627    135.28017    139.09446    124.34793    132.49362    137.33365    127.49864    137.33851    123.61508   
 87      143.57001    142.74650    132.95026    132.93815    137.73238    129.98727    137.14421    128.17749    134.33152    129.95048   
 88      133.78564    135.53081    141.97635    131.26378    136.69442    139.60562    125.86102    133.33242    144.14841    132.96191   
 89      132.98368    139.26323    132.55642    127.79236    138.86839    143.82732    130.85823    140.20646    145.11153    141.00056   
 90      141.77671    149.05755    134.77018    134.14075    136.21869    141.82550    151.60880    142.73087    134.15811    131.01458   
 91      136.27281    130.59330    136.91352    131.03358    141.00411    146.54073    138.44202    150.75752    143.38636    137.61368   
 92      141.85233    146.73215    147.48738    139.61634    137.28677    138.66485    142.56308    153.66368    141.17555    143.40006   
 93      145.19208    150.80226    149.15864    147.24246    142.63972    151.80463    147.78721    144.09090    138.02037    148.01388   
 94      144.81452    146.04119    149.11232    140.54882    143.17653    138.32676    145.53863    142.57338    143.58611    142.15969   
 95      143.08625    146.38454    154.90986    145.85650    150.98119    145.31296    154.79400    145.81472    142.89524    145.46991   
 96      139.62149    147.51423    146.62410    140.83919    146.81949    153.35483    139.70725    162.76125    154.49053    155.97514   
 97      152.33487    151.90402    149.00406    156.89494    139.96630    164.27595    149.95603    148.98744    146.35851    155.11340   
 98      159.71437    160.87372    149.64740    138.47915    152.60669    154.69197    137.71106    155.13335    152.65655    141.67195   
 99      151.80915    164.31549    154.75060    153.16866    164.73989    159.51902    158.77637    157.68979    158.71919    161.65563   
100      162.40881    169.59880    159.19215    153.93765    160.10427    165.69839    152.15837    156.99515    152.26207    166.97868   
101      158.63314    148.20345    145.01030    156.77730    162.12029    169.89022    160.95933    170.33474    157.29640    154.69126   
102      153.88978    161.35234    157.25484    162.14619    151.27277    151.29508    144.65644    172.88970    163.58069    155.29017   
103      162.59139    178.91996    165.89914    167.60152    162.42231    162.93620    169.90839    165.45117    166.59090    164.10319   
104      163.45993    178.56787    183.69654    167.46936    158.62989    162.04141    167.83185    170.80459    158.82364    166.68582   
105      173.84409    172.81099    174.42534    166.39694    157.01824    174.70600    155.23166    185.16246    165.69810    168.81190   
106      163.27549    164.95276    180.30416    159.31039    183.76019    180.48922    179.19777    162.72293    173.76634    178.43030   
107      186.88138    166.41386    198.28998    182.69256    185.33339    173.83655    176.78151    164.30888    185.57436    163.47292   
108      185.03506    172.48754    195.21331    199.86809    181.37780    169.23244    191.69505    179.58612    171.50101    186.73564   
109      188.80365    181.40081    170.13387    188.74690    194.96180    193.93756    177.34906    179.98340    168.47138    187.79972   
110      187.50133    190.87412    199.36454    189.65525    194.99975    186.18730    196.19887    180.90190    167.20290    190.94478   
111      197.15691    200.26995    181.53432    199.72272    184.42881    196.61813    190.77813    188.63678    189.34123    195.79471   
112      206.41341    188.22985    198.10002    196.59778    209.91091    196.46499    198.12804    222.94760    186.47094    192.39572   
113      201.70106    213.63713    212.11767    196.61389    204.41236    205.24851    204.53918    205.87442    197.06561    191.93989   
114      220.24307    196.31789    212.95855    213.49681    214.80218    197.29156    207.58521    211.40717    200.29891    223.33251   
115      216.18918    219.90687    210.44289    218.66224    240.17986    242.45347    213.74209    199.07001    203.12912    224.09491   
116      211.82930    197.00333    204.54077    241.10982    199.13155    225.92282    226.25913    195.66552    217.16606    210.35640   
117      231.88785    243.88416    209.33487    225.97639    224.51645    216.65698    219.46511    204.96292    245.54142    232.32387   
118      225.29195    214.09193    231.87031    239.54127    241.07198    243.74544    228.73505    219.79534    208.50376    233.14922   
119      254.51860    228.74257    256.20318    228.23243    234.52355    218.37561    239.30765    231.71442    221.91253    240.47038   
120      221.53978    221.53011    233.98963    235.75778    253.73705    247.25055    216.52010    240.62853    221.75679    240.03348   
121      271.56629    245.21577    226.54818    245.64204    250.00031    230.99725    234.09807    239.07968    271.09426    232.63065   
122      256.54032    248.91042    267.46067    243.10077    260.37119    243.83121    264.97843    254.34833    255.35432    252.73306   
123      300.39605    242.67823    266.55087    237.31072    281.75015    283.85243    261.60996    257.55210    245.18707    287.71837   
124      284.65353    281.69511    254.48452    290.76235    269.00167    275.50468    283.87225    247.63508    274.86720    277.93520   
125      314.32395    310.28254    274.73647    274.60598    303.30016    311.85963    274.23551    255.17896    281.79962    271.60864   
126      304.26005    284.75967    293.28018    280.65440    273.43269    272.02319    287.93239    279.47842    326.59317    312.56118   
127      278.09420    288.98790    271.08695    292.51846    284.79733    308.16273    329.94664    306.14517    311.82118    312.96337   
128      294.64767    289.96817    280.23320    320.08826    333.11463    329.84434    305.01421    287.69230    298.70181    294.79770   
129      335.13248    358.19072    312.51400    337.30854    314.58019    310.14261    323.85958    300.43876    336.07182    299.43891   
130      317.74759    319.80096    332.91375    313.47639    317.50483    287.81007    330.34716    335.34228    302.72233    306.26063   
131      321.95403    371.53022    347.18096    306.57563    328.51988    337.00996    315.29033    304.89446    328.81975    329.17757   
132      326.56637    345.66031    379.97969    333.19465    337.40990    337.02278    350.12786    335.26531    345.66704    340.58067   
133      385.58567    405.61425    344.75882    354.34905    374.89975    371.52208    330.86978    328.64655    370.06101    375.91374   
134      352.84988    389.81095    344.25464    406.96127    345.88223    371.39819    388.67741    391.77338    342.09619    341.38953   
135      377.59002    387.57139    387.19347    347.75896    372.19421    399.06129    411.65428    370.91891    398.66391    387.14833   
136      392.53561    378.65401    381.08778    359.22322    366.80281    391.31631    442.67817    405.50956    433.44618    427.21347   
137      411.05317    442.48941    378.16564    425.95510    387.24595    445.06901    410.15622    380.43406    425.32937    430.44129   
138      451.11020    439.21046    435.84397    432.85438    454.01796    484.22605    428.43214    400.63724    443.76077    422.66251   
139      431.52486    406.59146    409.19312    486.86233    445.86520    387.47979    472.44877    507.09257    469.13879    491.39908   
140      503.54550    462.19104    448.67067    396.79362    460.01996    490.09644    416.87201    428.75638    418.95991    438.74564   
141      451.78331    518.55393    413.74464    514.55400    541.64021    468.04224    436.98629    470.68895    499.10477    480.50213   
142      533.91965    514.04937    479.77376    467.50065    468.83931    470.04833    530.67506    488.11993    501.62864    447.79950   
143      545.32926    530.99612    470.13791    486.47255    531.09900    507.45190    506.13990    535.08099    518.28631    470.87063   
144      583.84646    519.67999    534.43269    506.41340    554.15407    562.75617    550.20154    523.18509    532.68451    534.38693   
145      546.78632    502.04941    571.37074    568.03651    548.43402    592.18782    545.35516    521.74232    558.86854    487.76019   
146      575.87951    610.34136    571.35125    537.22992    587.78477    618.77890    573.91308    591.57749    513.75441    610.72799   
147      627.15093    567.21008    590.82121    564.80223    525.97952    631.71483    644.28933    577.83320    597.93321    612.82069   
148      573.15028    579.61335    627.80097    617.98737    575.39941    527.47423    604.77147    543.26789    596.55069    589.98599   
149      607.15614    634.14082    618.74586    626.61277    589.16784    581.89632    671.51596    660.05022    562.50934    619.70169   
150      645.33670    642.77608    653.59347    651.58136    620.28145    676.09135    741.59384    658.15391    695.85995    650.64018   
151      688.43644    657.58945    633.71791    623.99766    596.15156    718.49350    667.15072    754.22289    656.75661    666.05721   
152      781.72196    682.60376    664.07764    685.03755    701.53157    754.72887    743.86390    669.25884    684.86100    712.13853   
153      725.34502    716.87405    749.39526    696.61204    756.39397    681.39744    716.78481    803.66213    732.97137    718.45919   
154      772.81780    749.51558    795.29784    728.30025    688.35280    720.00073    711.45408    682.46078    824.50609    704.22954   
155      695.65403    804.68353    780.14647    782.25619    782.98140    729.02219    764.87855    729.82489    851.42773    791.53623   
156      805.31219    699.50403    817.84305    765.59389    814.01697    840.37264    793.96922    831.11212    782.81789    749.24540   
157      840.01545    862.22584    908.09978    800.31981    921.66105    794.19864    820.20959    728.18210    825.84043    859.64803   
158      886.35604    890.07730    935.88303    809.74306    903.16877    851.88664    866.66566    831.91744    850.79056    886.52617   
159      893.96065    893.93631    900.27854    919.13169    942.53284    834.22409    835.17804    924.73474    843.85417    937.45406   
160      913.87755    952.94746    874.12506    860.32283    856.53866    933.48997    873.75427    967.67631    976.99094    913.97686   
161      909.79849    929.58161   1021.74764    924.42414    996.72060   1032.71638    986.10906    853.85406    989.13519    967.16828   
162      928.57321   1042.18160    867.25352    971.47565   1007.47745   1000.70741    896.68086   1082.23508   1047.21267    902.32423   
163     1035.77312    992.31291   1015.60871   1094.66495   1033.26776    986.80537    985.12397   1040.52909   1023.83301   1106.39545   
164     1047.41067   1100.94950   1015.85200   1146.49961    982.73891   1025.60243   1099.67938   1111.53055   1035.32922   1100.87599   
165      998.70094   1000.72544   1067.37399   1132.17764   1008.46803   1030.83882   1090.24635   1039.92580   1008.75326   1037.50487   
166     1098.84204   1119.34080   1068.70895   1151.77008   1093.92294   1061.15053   1092.73720   1043.88822   1135.44576   1091.17921   
167     1145.16432   1119.18596   1137.51888   1124.03481   1173.24635   1155.74777   1151.56531   1107.43441   1173.52992   1221.57317   
168     1196.16028   1120.92004   1299.34568   1211.98011   1189.91232   1149.95266   1132.90967   1108.56580   1070.64842   1239.97681   
169     1214.83125   1251.78462   1158.58144   1211.89548   1278.71992   1105.41996   1213.03205   1262.58718   1198.60363   1237.34205   
170     1202.10374   1134.20916   1292.40804   1341.92568   1247.67112   1284.79462   1172.30245   1300.44722   1217.27683   1275.88669   
171     1363.96714   1383.39499   1291.95535   1412.61980   1289.69002   1269.69007   1338.70247   1209.34906   1326.56526   1319.89096   
172     1385.84085   1273.23760   1308.16920   1316.63430   1419.86365   1359.60801   1360.25064   1291.44649   1313.43537   1372.75903   
173     1385.04939   1493.74946   1438.24045   1516.71774   1390.80758   1476.03323   1449.46470   1390.47530   1370.83941   1297.73464   
174     1393.18379   1509.94434   1453.73725   1479.71145   1374.85158   1369.50247   1441.37512   1406.80314   1444.51483   1415.37322   
175     1406.53921   1427.22273   1480.98223   1472.77500   1445.64539   1473.29732   1427.49083   1442.36463   1509.32686   1488.76956   
176     1640.58015   1461.92309   1427.78298   1488.88290   1529.97503   1644.85178   1567.31872   1409.84131   1574.00110   1524.32301   
177     1623.04627   1605.41824   1680.40142   1501.26919   1577.98521   1527.76847   1558.60300   1554.62072   1531.57889   1518.67607   
178     1593.97724   1579.82456   1528.76914   1670.45626   1532.14473   1652.76408   1517.18608   1689.58637   1606.39641   1621.74011   
179     1652.82000   1624.82158   1682.28219   1599.61746   1619.99838   1714.43869   1706.00747   1629.52090   1567.96981   1625.20561   
180     1655.48821   1677.53703   1677.70049   1732.20317   1653.37422   1653.10364   1604.55891   1635.54118   1717.27278   1627.14869   
181     1838.88496   1658.47918   1684.99296   1797.31157   1764.91330   1827.70075   1819.70880   1711.33839   1763.87651   1791.76233   
182     1843.36222   1742.59399   1891.54426   1715.14351   1704.23735   1799.51308   1898.15195   1783.63522   1786.81127   1821.19462   
183     1874.76994   1748.33832   1668.79963   1803.29854   1952.83318   1840.56017   1861.73901   1742.75879   1981.71311   1944.04238   
184     1962.12982   2047.69818   1856.36286   1964.08135   1926.17143   1946.64357   1946.83560   1837.46510   1804.71512   1805.40493   
185     1806.46794   1926.01398   1807.64525   1838.28640   1909.86045   1948.93873   2024.69943   1984.88871   1890.82730   1922.14997   
186     1972.63207   1962.62146   2095.13185   1974.04480   2131.52608   1980.03240   1958.75876   1908.99997   1890.85183   1924.47812   
187     2106.44020   1960.08685   1962.27099   2007.82503   1947.69404   2078.46394   2073.05549   1926.67226   1992.51640   1990.03466   
188     1983.76842   2111.71224   2102.85157   1930.01384   2095.32353   2049.05649   2103.16933   2047.77707   2205.65448   2091.88222   
189     2242.47438   2179.62416   2170.47774   2089.06839   2222.30758   2032.65295   2025.81189   2098.10840   2135.06140   2285.26469   
190     2114.39288   2284.07125   2182.66700   2254.30691   2388.35106   2136.38405   2197.88741   2132.04347   2330.10897   2055.28660   
191     2269.75136   2283.52228   2147.54637   2293.80971   2259.86586   2301.39388   2335.53238   2306.72124   2332.49132   2224.31105   
192     2360.31818   2372.23709   2272.58855   2342.57743   2245.78641   2249.72037   2309.86690   2467.95587   2294.94967   2191.15094   
193     2294.63153   2461.30719   2293.17087   2269.89329   2509.43037   2326.49719   2443.34106   2383.79594   2403.13704   2361.03817   
194     2576.68374   2426.60251   2500.21013   2515.80770   2520.88476   2379.69691   2475.09416   2422.60462   2413.91095   2583.11209   
195     2544.96148   2505.09101   2585.71066   2488.21781   2546.43296   2516.95579   2507.04918   2458.52580   2631.63151   2544.51014   
196     2712.43673   2539.84220   2382.03846   2511.68635   2698.02273   2653.07158   2504.10286   2541.81228   2475.21701   2650.53711   
197     2561.33016   2576.85073   2788.51137   2628.13082   2706.99004   2656.61488   2660.03230   2680.13297   2533.38127   2570.95081   
198     2647.03348   2664.61998   2719.66710   2692.31373   2724.85884   2693.59942   2725.24703   2631.09244   2726.53612   2654.02386   
199     2880.85960   2765.60965   2658.86431   2932.61455   2666.53453   2724.23453   2749.24964   2567.98494   2881.55297   2742.87679   
200     2832.25611   2966.94597   2838.00488   2776.15096   2891.76677   2736.83772   2925.66469   2733.47312   2759.12283   2965.60829   
201     2873.15496   2817.99885   2811.96895   2914.69721   2863.48161   2947.68863   2954.28893   2770.72574   2723.93718   2766.12998   
202     3160.02866   3003.99994   2919.36669   2872.20137   2942.03760   3040.61417   2879.63804   2999.82003   2795.66267   3049.17741   
203     3136.41160   3007.22510   2876.55339   2836.91195   3077.68129   3042.42178   3094.79395   3069.76176   2977.61159   2890.14698   
204     3266.64999   2934.14937   3070.75017   3056.47178   3005.71846   2964.01759   2972.34635   3173.49046   3093.59835   3164.92658   
205     3137.02276   3154.55878   3044.67644   3107.00763   3140.91365   3223.34503   3292.87300   3065.91052   3131.33654   3053.54467   
206     3087.08809   3028.63365   3211.21998   3156.47883   3134.08408   3118.90475   3220.22925   3352.43445   3099.33794   3114.73517   
207     3203.48928   3115.82269   3279.02407   3281.38549   3184.15855   3345.82928   3214.75120   3345.89188   3070.63587   3339.22144   
208     3224.39797   3191.37436   3463.53305   3204.41741   3360.95777   3346.51619   3292.09652   3152.00609   3305.39346   3371.97024   
209     3317.28936   3489.47176   3492.15825   3441.73939   3392.84608   3423.21547   3222.02642   3384.96150   3515.11989   3328.09584   
210     3362.26380   3606.99462   3543.54273   3337.08602   3340.00335   3516.82311   3454.77244   3404.01512   3270.81079   3455.10142   
211     3521.42552   3483.97051   3399.76644   3496.66896   3423.68964   3355.07133   3415.04539   3388.45542   3360.59180   3432.38956   
212     3634.27445   3440.25596   3380.53604   3588.30756   3538.09684   3733.23917   3614.59163   3462.61358   3740.51567   3597.57793   
213     3562.29101   3617.46000   3603.06511   3599.22270   3516.02156   3704.56561   3709.28183   3601.95702   3737.74422   3563.48234   
214     3788.29315   3691.26066   3859.36132   3685.65469   3533.97316   3772.15478   3745.59442   3760.01690   3720.65264   3610.45603   
215     3596.98799   3655.92466   3579.82148   3724.75887   3747.83507   3859.67682   3576.41159   3770.71605   3728.21085   3795.70412   
216     3877.17174   3656.98192   3788.05965   3867.98999   3706.59361   3688.51056   3985.48819   3841.83097   3731.43984   3728.74973   
217     4016.03991   3949.03420   4000.84940   3889.40494   3769.61151   3937.86196   3821.89087   3848.96959   3784.56565   3933.59605   
218     3868.96016   4114.76794   4049.56168   4052.79993   3874.88950   3861.08326   3878.91745   3875.44090   3820.57189   4054.63864   
219     4114.32312   4133.05424   4064.00833   3939.40702   4028.61698   4079.07330   4002.75558   4002.68090   3937.62590   4014.79127   
220     4046.97092   3871.81476   3988.47381   4057.81092   4113.18541   4082.12281   4057.14628   4048.07805   4014.37840   4102.98870   
221     4239.01783   4160.74309   4156.90302   4107.94840   4096.57929   4207.01757   4195.54396   4006.80220   4122.38379   4067.45929   
222     4194.64247   4246.33238   4190.62830   4177.27127   4243.36099   4195.58329   4143.05401   4045.77109   4159.20862   4344.05811   
223     4152.64562   4294.66136   4346.36710   4223.84538   4282.81363   4232.47929   4102.52243   4256.61846   4261.86182   4229.95034   
224     4313.46769   4395.41009   4184.24390   4122.80538   4398.67477   4428.06148   4122.39445   4220.29898   4232.36573   4347.70407   
225     4331.06662   4267.57334   4250.40085   4360.66784   4299.83145   4426.87060   4383.40162   4313.52054   4240.02496   4404.07123   
226     4369.52540   4522.67864   4394.82765   4451.20087   4321.30680   4365.39952   4428.64860   4325.02734   4419.76885   4362.94826   
227     4512.52977   4591.19753   4469.97216   4332.30306   4425.06522   4272.24400   4497.58905   4499.99103   4416.87919   4264.26507   
228     4452.50804   4447.93902   4387.98583   4439.09799   4466.83699   4488.26838   4445.02180   4483.23226   4590.22215   4503.02908   
229     4537.80694   4447.76208   4636.94426   4546.63433   4389.77800   4420.99502   4613.15864   4592.09171   4449.83412   4645.52286   
230     4577.89480   4617.39368   4518.23006   4424.54244   4577.37594   4563.88156   4525.77098   4576.19536   4595.42827   4563.23162   
231     4540.33411   4697.24337   4726.09973   4648.01207   4623.19084   4651.03524   4596.71097   4599.43785   4674.20978   4648.41025   
232     4664.11680   4794.63728   4795.52411   4640.63191   4715.19718   4668.31693   4807.23250   4642.11355   4734.14642   4767.41801   
233     4741.50430   4805.15000   4825.15760   4661.96001   4780.45934   4727.90026   4602.39778   4667.75204   4854.83177   4730.99418   
234     4702.71044   4791.50932   4755.18450   4846.51939   4646.12372   4671.76026   4778.00871   4682.58570   4832.97018   4807.48311   
235     4872.84540   4740.54791   4947.37263   4928.09541   4921.05179   4835.20152   4758.28043   4822.90705   4746.03593   4943.84547   
236     4716.89943   4980.15636   4883.74218   4844.80418   4760.43043   4781.87129   4853.51232   4844.05283   4863.64042   4939.80541   
237     4993.00060   4832.98630   4824.81605   4865.18408   4950.10460   4892.03247   4745.59583   4914.86795   4796.76728   4863.22283   
238     4904.32809   4902.58235   4841.92144   4875.91720   4858.00589   4876.61901   4935.77491   4991.13771   4928.86934   5008.78024   
239     4937.51050   4818.82998   5007.38070   5029.75375   4894.30722   4969.20212   4981.85503   4933.87897   4954.97266   4872.54211   
240     5103.22883   5070.75921   4963.37706   4989.52527   5086.82067   5056.62365   4993.74426   5062.12368   4863.79689   5048.55145   
241     5075.62705   4989.00933   5131.95092   5086.94904   5001.56690   5006.93582   5009.57347   5072.19734   5092.83999   5197.06068   
242     4951.59657   5054.99046   5034.98383   5033.29303   4984.74976   5023.67653   4960.81205   5094.66870   5157.78278   4959.64754   
243     5155.03983   5170.01418   5089.55729   4986.65200   5033.39071   5059.92340   5103.58456   5224.90800   5094.60356   4969.99999   
244     5194.60706   5045.79541   5214.85678   5228.14369   5150.04733   5101.87663   5148.62322   5029.92865   5195.79314   5154.40920   
245     5131.24502   5173.63642   5202.83312   5102.54614   5242.63097   5275.99316   5167.22062   5163.33525   5186.68842   5190.94484   
246     5295.28629   5077.37865   5142.87968   5248.31792   5232.57748   5200.49958   5179.55669   5181.08625   5258.28866   5288.54232   
247     5202.39048   5124.85425   5160.04168   5274.26736   5230.71032   5213.17147   5204.50133   5194.87544   5352.69475   5239.99542   
248     5289.35114   5321.60026   5365.45200   5212.55729   5138.56652   5282.33664   5169.55011   5212.01422   5307.17987   5280.86630   
249     5193.71904   5250.52622   5179.08257   5320.42436   5217.10631   5226.47986   5236.38136   5209.46691   5176.57948   5236.56957   
250     5289.86519   5155.55399   5354.24187   5246.85439   5281.47567   5158.00383   5278.54666   5238.35122   5389.86510   5223.50872   
251     5279.90756   5196.99362   5340.34436   5226.73843   5238.93051   5359.94618   5228.01824   5179.72366   5200.57031   5284.91011   
252     5228.38355   5308.80171   5231.71001   5401.62182   5223.95909   5204.44245   5284.14059   5299.08510   5299.79179   5208.00523   
253     5408.84623   5382.36154   5186.89094   5224.23660   5339.51811   5383.94087   5325.45886   5209.64063   5314.92465   5334.09102   
254     5299.35640   5217.17639   5392.72666   5429.21771   5205.83287   5285.26089   5409.75575   5212.42308   5304.20511   5414.62542   
255     5372.54267   5273.40190   5398.81923   5423.58018   5264.90121   5341.92634   5278.81539   5297.47706   5414.66832   5342.81975   
256     5430.10888   5240.78390   5405.71633   5413.18662   5311.76685   5419.77285   5303.26212   5355.87505   5286.54622   5319.40240   
257     5293.90450   5302.30782   5292.57889   5402.99903   5389.25831   5297.39272   5300.36333   5377.77088   5365.78379   5352.75152   
258     5410.21404   5295.58821   5261.58959   5269.95588   5303.66822   5423.24180   5435.36668   5351.43689   5229.68634   5309.63349   
259     5365.23626   5302.68631   5269.99983   5221.72798   5306.96477   5328.60932   5317.85150   5350.21540   5260.76492   5264.72633   
260     5266.62216   5274.22276   5426.72836   5382.90254   5438.34000   5308.43379   5312.88342   5253.11731   5426.50486   5281.76489   
261     5345.17529   5251.53609   5436.75792   5387.48787   5249.34808   5205.58015   5406.26265   5335.95964   5350.70400   5391.20035   
262     5315.04778   5310.52815   5397.36744   5350.56953   5314.93398   5242.58292   5334.20718   5227.08694   5209.73175   5273.56859   
263     5326.08243   5399.24639   5297.55713   5265.88784   5218.85742   5376.68322   5290.47781   5322.09835   5230.95263   5311.26096   
264     5265.12168   5282.14710   5373.78931   5339.00464   5293.11268   5318.57775   5348.12994   5231.42917   5215.63685   5314.07909   
265     5233.73508   5364.47217   5195.66921   5380.62635   5344.03172   5185.55169   5298.36223   5266.25940   5323.05321   5215.29924   
266     5227.26356   5324.37825   5233.62006   5148.99330   5205.67367   5347.57973   5280.62504   5292.91035   5191.82252   5178.03408   
267     5219.09168   5303.50055   5329.96703   5317.39313   5284.06404   5153.64206   5219.44307   5321.05794   5354.85897   5328.23573   
268     5117.81982   5284.93235   5263.13269   5183.26656   5200.14803   5176.43273   5219.39793   5195.67842   5256.35148   5122.52196   
269     5233.62775   5237.12234   5207.16091   5160.79254   5124.89695   5099.91345   5292.06908   5112.22091   5128.98313   5102.77361   
270     5239.22659   5151.65052   5313.32517   5226.60861   5102.65178   5180.00217   5172.15156   5253.44442   5235.86630   5272.54375   
271     5285.76813   5171.29070   5176.11325   5062.20832   5288.09197   5235.73514   5186.71172   5175.51542   5197.85274   5154.04783   
272     5087.63501   5260.10313   5083.55807   5080.84657   5141.74846   5135.15567   5183.36431   5191.07288   5031.43419   4994.82596   
273     5133.57302   5021.33100   5193.69570   5126.66044   5121.96696   5167.79493   5203.82422   4976.36041   5132.61520   5159.13518   
274     5117.80875   4993.09818   5031.29656   5115.13894   5168.91391   5130.77570   5135.85427   5107.77787   5156.26059   5039.91230   
275     5042.47531   4897.66106   5073.10945   5167.69209   5153.04004   5006.40103   5189.67346   5087.75746   4946.79385   5140.92358   
276     5035.33926   4963.34280   4907.46457   4937.67593   5067.73211   4988.51583   5119.62953   4925.82975   4974.16408   5013.89103   
277     4885.25930   5001.80160   4878.58164   4884.64739   4933.02517   4892.47366   4868.96359   5104.68756   4995.59691   4937.27218   
278     5006.70960   4841.80442   4901.89410   5050.12338   4886.21417   4935.18519   4895.87088   5043.38856   4788.88409   4966.04665   
279     4967.59868   5013.93880   4959.87854   4762.37000   4944.30183   5038.58123   4938.06750   5016.77159   4751.03629   4838.23633   
280     4788.15586   5027.35871   4799.76206   4814.79496   4725.11966   4854.46127   4899.96258   4974.06544   4859.98500   4763.81023   
281     4671.91939   4954.10769   4697.17094   4773.50998   4752.17797   4672.07547   4981.19758   4781.57801   4779.35022   4690.18307   
282     4827.74998   4828.61543   4757.50005   4786.21923   4658.40400   4642.24476   4669.07072   4914.38455   4821.27839   4733.08020   
283     4704.79018   4708.02006   4777.24261   4693.63073   4709.55526   4684.98522   4682.81906   4717.52983   4725.36727   4715.42046   
284     4619.35686   4759.81886   4607.45434   4668.91314   4622.64204   4793.22797   4818.97464   4747.67131   4678.42475   4677.52633   
285     4697.87214   4721.81848   4591.08216   4561.88140   4637.75828   4734.15102   4584.01647   4646.57547   4725.92196   4673.68528   
286     4508.95326   4590.60007   4729.72145   4639.37743   4702.32804   4638.44823   4699.90459   4578.10781   4581.36564   4622.92561   
287     4466.81009   4660.77745   4591.79856   4619.73255   4614.46423   4697.66497   4626.92628   4421.86589   4597.49356   4384.26252   
288     4455.31649   4425.74295   4522.39493   4570.30850   4472.69615   4504.28317   4605.51840   4667.96188   4317.21489   4645.22583   
289     4575.58134   4359.68020   4471.00713   4407.46326   4500.54858   4487.31290   4418.50464   4469.15197   4602.73298   4444.75313   
290     4292.37883   4370.93520   4315.42163   4366.79938   4470.61066   4293.89966   4389.48795   4409.42999   4428.54711   4462.88861   
291     4408.75356   4274.39186   4335.56026   4234.26489   4256.34221   4228.98277   4417.92308   4248.72422   4225.00698   4427.72390   
292     4333.55270   4335.67910   4182.99532   4258.76984   4219.36600   4203.29031   4198.41481   4347.99307   4340.51699   4233.71428   
293     4350.63771   4337.45018   4264.34860   4221.06031   4203.05215   4222.95333   4184.37241   4087.16508   4286.42988   4254.85628   
294     4113.94259   4129.92753   4212.62248   4165.67499   4215.31522   4151.88444   4125.90185   4306.66845   4235.20638   4201.95611   
295     4170.44283   4155.22236   4066.46703   4128.11985   4002.15135   4148.36907   3990.02035   4178.98032   4190.24356   4090.11777   
296     3944.48936   4258.59291   4199.33980   4130.63237   4112.11311   3956.86189   4094.08012   4038.80741   4094.04725   4068.61061   
297     3943.09541   3955.83415   4050.50989   3767.92658   4062.98196   4045.96526   4047.87684   4114.64731   4028.26092   4001.53584   
298     3939.02658   3982.27438   3794.47018   3951.59711   3882.13760   3866.77017   4002.21904   3898.17708   3924.46664   3946.09533   
299     3808.68096   3819.13678   4014.21298   3821.12088   3811.76136   3829.86921   3834.00967   3792.92474   3762.45376   3779.79104   
300     3714.53459   3942.74345   3847.03855   3787.41629   3811.07485   3872.23004   3946.58814   3698.96939   3728.92813   3828.29384   
301     3716.68328   3834.85610   3811.79311   3735.68047   3813.05476   3829.04731   3646.66476   3826.41859   3745.28036   3672.59160   
302     3710.40327   3723.31969   3741.32592   3716.64184   3683.53666   3609.76053   3771.26550   3636.32094   3790.63267   3730.65431   
303     3721.00869   3466.64916   3593.00021   3802.47950   3548.28138   3791.79891   3752.31138   3725.04994   3666.84556   3481.17810   
304     3467.90982   3412.72930   3598.14471   3738.34130   3468.07490   3698.78650   3687.99786   3529.23428   3537.58349   3599.35098   
305     3434.02526   3377.23677   3361.10122   3635.62660   3574.15341   3457.97942   3379.27194   3594.24375   3613.18876   3485.02457   
306     3509.47251   3518.44762   3402.08541   3387.81785   3384.58400   3528.13371   3488.11233   3345.09312   3393.13263   3489.97612   
307     3551.73157   3312.60264   3408.44109   3469.25320   3552.76691   3287.24595   3371.13092   3329.19613   3464.01664   3348.10411   
308     3111.36808   3294.23780   3230.56355   3218.78869   3385.44084   3399.76313   3157.96506   3364.78296   3303.50944   3414.85401   
309     3396.15877   3232.89904   3289.13768   3256.24079   3365.84932   3248.54948   3332.79461   3188.35144   3322.99528   3239.44379   
310     3164.03253   3027.74137   3295.37666   3185.07559   3016.68010   3328.49174   3252.81840   3323.63583   3251.41632   3053.11913   
311     3213.06918   3058.50568   3140.10536   3081.50772   3218.08138   3058.90752   2992.44843   2954.61403   3231.67340   3090.90815   
312     2998.83524   3060.22023   3043.26735   3122.02809   2903.64435   3045.70191   2963.68183   3094.45139   3102.36180   3105.92689   
313     2950.31552   3056.73275   2916.84298   2922.26887   3030.91248   2942.44397   2877.92307   3042.97002   2964.05119   3045.49933   
314     2847.07157   2889.67830   3002.79595   2853.14048   2879.70344   2815.19485   2762.56434   2970.71514   2793.40089   2945.78698   
315     2788.44899   2948.94141   2845.84669   2901.23868   2678.82854   2808.70551   2875.39708   2789.21313   2880.12020   2788.45626   
316     2853.69425   2822.01516   2812.71343   2754.92449   2789.54916   2858.98900   2850.52954   2861.22366   2817.61392   2847.43061   
317     2683.27325   2757.67816   2793.46891   2888.59087   2598.99948   2699.95647   2736.02779   2792.17923   2628.29848   2687.64225   
318     2668.57560   2745.26792   2810.34540   2821.95753   2819.04102   2613.44234   2653.63729   2793.94421   2512.84884   2631.19195   
319     2692.18601   2713.41338   2635.16853   2518.26550   2750.02511   2611.40788   2756.77338   2596.19667   2781.72718   2647.38815   
320     2697.57653   2597.09097   2704.74469   2518.48871   2671.13617   2596.50719   2612.83884   2708.46501   2640.44647   2540.47630   
321     2529.81778   2512.19303   2403.09371   2511.06926   2609.73080   2488.89914   2605.28753   2539.14865   2598.23893   2491.28879   
322     2343.78763   2602.62483   2300.65594   2416.95071   2361.92762   2363.97330   2411.46918   2383.30874   2435.00214   2489.93707   
323     2342.26270   2428.37271   2273.00699   2314.62131   2325.50745   2396.37685   2292.41022   2483.83439   2472.85725   2288.09947   
324     2422.16637   2305.06394   2295.15615   2474.91604   2341.61526   2239.47949   2261.69199   2157.55532   2354.55005   2376.73552   
325     2278.21623   2328.09316   2297.27310   2339.02237   2255.03240   2258.38525   2205.51562   2424.68551   2241.14282   2330.54451   
326     2148.28285   2179.65007   2149.90295   2175.80698   2186.88570   2208.50088   2174.64279   2268.13109   2292.59540   2132.48478   
327     2151.61163   2366.54769   2137.35803   2039.32741   2218.54038   2340.32639   2086.58379   2116.01789   2020.73298   2163.90321   
328     2171.14974   2144.63426   2134.05057   2090.73221   2098.10122   2151.10760   2213.46263   1996.49043   2147.02700   1923.21850   
329     2105.61602   2188.34879   1939.11455   2148.47367   1985.20629   1879.66099   2089.16821   2054.50057   2034.27624   1918.24239   
330     1947.52470   1918.67806   1975.29449   2084.06987   2032.24766   2024.91766   1992.24989   1973.87005   2063.17370   2160.57967   
331     1929.77442   2006.83849   1782.80879   1984.80979   2135.20873   2005.53380   1802.76141   1868.57615   1903.52952   2077.58094   
332     1795.11143   1847.45518   1789.09758   1993.14574   1938.60008   1744.63164   1870.02472   1928.74155   1915.12922   1840.51580   
333     1811.62963   1872.53372   1817.58616   1880.44490   1920.09934   1856.68594   1973.75399   1811.64280   1933.72765   1832.78623   
334     1771.43408   1924.69460   1792.69737   1901.41325   1817.10630   1712.70969   1839.42529   1645.54261   1817.39908   1738.31407   
335     1733.73670   1677.52986   1812.65899   1624.67306   1827.00429   1775.70174   1709.33125   1776.93803   1666.65429   1697.78101   
336     1661.02763   1656.41082   1719.24244   1657.09340   1728.88756   1839.43519   1687.52838   1697.22280   1682.75247   1810.65755   
337     1618.79853   1683.22216   1637.89404   1585.02820   1731.66301   1625.24300   1682.99060   1732.80966   1505.41198   1475.93020   
338     1661.54342   1546.23117   1705.36599   1589.65178   1516.61078   1589.61078   1456.59973   1707.57354   1545.14121   1621.71168   
339     1584.79196   1581.65397   1566.32849   1623.86893   1611.81356   1528.02608   1493.47729   1644.60655   1415.95470   1578.10933   
340     1527.27177   1500.02926   1612.38209   1663.49376   1515.16057   1472.59338   1604.76005   1513.21788   1571.39268   1575.19080   
341     1495.09420   1407.48241   1532.92986   1453.63831   1597.20634   1500.89961   1516.20056   1461.49626   1452.41103   1428.80576   
342     1578.54734   1512.97311   1449.67462   1344.51409   1457.87644   1451.50281   1428.85968   1443.66451   1306.90327   1492.31370   
343     1295.59076   1284.01102   1432.71502   1444.62130   1392.37957   1327.99307   1319.47041   1476.26165   1377.09567   1312.35472   
344     1380.49874   1350.98958   1229.93744   1316.48774   1380.32009   1417.97897   1380.59774   1312.50295   1360.84704   1407.48075   
345     1208.52565   1346.39308   1351.46333   1247.54831   1262.81227   1297.43222   1347.89413   1284.71743   1287.49171   1324.14415   
346     1250.77097   1222.86451   1204.34106   1256.38657   1370.72949   1286.98920   1203.94257   1141.19188   1287.69404   1241.58575   
347     1229.95074   1202.23749   1254.12362   1175.10309   1143.53911   1225.27517   1185.53927   1153.06747   1253.02284   1248.13923   
348     1233.91818   1225.29841   1136.62031   1239.92519   1174.56456   1284.52070   1106.24805   1300.71539   1111.09078   1165.89731   
349     1181.71692   1217.57808   1223.37920   1188.81221   1228.50396   1122.78876   1102.12126   1155.64356   1115.83638   1153.30317   
350     1114.16072   1097.42881   1090.01635   1232.55139   1133.75667   1054.60366    994.73805   1075.83910   1139.51126   1173.08553   
351      979.07538   1132.87282   1024.90811   1100.11987   1095.12687   1026.99151   1041.86157   1033.51138   1156.63924   1099.49992   
352      968.25804   1035.11693   1151.58767   1131.48219    947.78347   1091.90690   1102.88357   1026.06134   1007.65114   1157.09513   
353      968.75646    973.41798   1107.87552   1043.22580   1075.43902    929.94819   1024.98620    984.39794    955.97346   1048.33265   
354      982.66076    903.02822    968.27953    973.04224    931.57462    985.57982   1042.23485    908.69910    924.85746    987.31628   
355      998.24175    985.85853    958.95439   1002.05200    894.78920    952.96742    955.31235    967.90013    923.94693    965.52740   
356      983.89750    885.68985   1006.89214    894.54702    936.40297    892.74597    904.42299    946.02294    793.64182    861.42891   
357      959.72684    949.94200    892.11436    875.29341    847.90087    901.23375    863.15021    938.21751    992.07228    915.37884   
358      858.94181    831.89094    841.34522    851.90444    873.11925    821.18166    818.96082    813.41309    823.98726    858.94599   
359      859.68704    804.93956    761.06786    800.79095    847.89197    854.13809    904.83205    874.40432    844.66192    874.70443   
360      791.97294    845.87979    760.50521    785.28809    769.73863    757.13306    768.20494    753.59147    790.15430    728.61512   
361      810.92870    843.07982    714.50631    816.32335    846.71505    797.57955    870.65433    759.96159    693.07163    862.43174   
362      719.53120    791.96665    762.73531    703.04442    776.32826    761.53441    688.47148    736.11192    777.48011    752.16824   
363      752.34700    705.37648    732.63328    790.33295    686.94335    689.70597    690.90985    704.17050    773.25444    672.39696   
364      652.92573    691.28053    680.73563    750.43318    714.93027    686.09563    760.66107    731.52895    716.74529    702.15941   
365      639.94448    666.38704    668.71047    719.38923    685.12455    676.86013    661.22126    685.97177    622.90972    668.37386   
366      604.52518    639.44203    698.40439    651.76657    645.86129    646.78366    645.48783    647.71021    641.25821    669.35005   
367      620.07788    648.56119    616.06576    554.80163    616.37836    605.76083    581.92627    641.09084    570.17657    573.29889   
368      605.77517    608.76406    655.23003    539.27288    654.50003    634.58841    560.32492    581.01565    574.42458    546.76245   
369      607.24652    558.69912    592.92490    561.67787    630.03886    543.97254    577.95227    619.76408    529.01311    579.70067   
370      520.29827    529.46559    592.20255    531.35832    575.14747    512.64688    571.81863    606.46901    510.24606    530.95422   
371      556.49619    521.64548    536.09650    591.12150    522.12637    533.55242    520.22737    557.04727    610.94358    546.51459   
372      536.02386    591.27384    583.39823    469.40556    499.18168    548.94345    560.18775    520.61269    468.55316    462.37562   
373      538.89861    497.73928    545.60722    511.26043    469.90487    491.53155    464.99559    513.35198    502.97169    504.94083   
374      462.40536    507.00754    441.77077    472.00071    529.88912    440.92019    472.82180    502.42954    510.53203    503.12955   
375      512.55041    513.21274    531.36166    521.10696    508.24312    505.54091    465.51628    416.57769    494.56828    460.90995   
376      498.43896    446.84214    478.19742    524.28993    450.65156    443.84802    430.59746    472.42513    459.05496    442.22756   
377      443.24658    503.86087    455.86022    435.49578    448.71065    389.57710    441.87179    446.23380    455.04421    438.89444   
378      420.07709    384.70454    465.39302    390.46035    427.97351    437.82492    379.48915    393.24502    398.92816    461.52176   
379      405.80759    416.62834    443.56364    448.09830    405.83785    367.23756    404.23307    448.80855    380.97760    398.51053   
380      418.51807    406.16096    389.23068    426.84878    396.81293    405.87534    396.23340    429.43264    407.84939    442.97856   
381      377.56026    385.42452    425.11780    365.64802    365.31726    378.79546    393.35227    394.22052    335.49965    426.28730   
382      381.02489    380.18356    366.35496    345.88094    365.28810    372.09328    373.04439    341.77499    345.31550    412.57501   
383      376.70596    343.35908    341.14502    397.87971    357.93294    344.64254    378.03197    382.65213    377.09515    372.94237   
384      350.37665    364.01419    345.01554    312.60976    356.59109    308.69304    383.96146    380.88034    338.62373    368.64376   
385      339.98684    305.05705    321.01350    318.72625    382.65338    345.29918    350.18061    338.95715    320.48557    365.33745   
386      316.64364    297.96983    313.84567    323.64298    290.31093    310.75398    364.88231    319.56200    339.65262    329.52383   
387      326.75484    296.57838    319.66871    300.06676    281.18167    329.23192    326.10915    335.62141    343.29741    322.96747   
388      300.61172    298.09416    298.82060    299.94622    282.78422    298.03949    315.85337    290.17145    304.58198    303.26793   
389      281.31465    316.24524    285.07106    271.95651    301.08375    285.88938    302.31248    316.25817    268.90283    275.64884   
390      270.01900    286.93074    278.59079    287.89284    291.43584    305.16846    312.33131    314.34267    263.34408    280.89944   
391      294.62737    258.81247    279.59054    295.75909    297.46921    285.40525    312.73058    254.74532    286.72099    281.98234   
392      268.03656    259.26751    283.14703    275.77338    246.26598    258.19516    281.91152    267.74329    259.07961    273.51232   
393      237.15711    256.70972    283.10854    283.36860    246.23269    253.87015    258.63801    269.60076    267.01152    265.02559   
394      247.87704    264.22663    248.90556    263.96215    249.95822    275.80407    260.75539    237.87854    238.79574    278.69111   
395      270.78376    254.05222    275.76258    263.83685    253.42118    251.99142    252.89758    254.42308    264.23085    264.04338   
396      230.39375    276.69282    250.54718    243.43111    255.30493    242.85196    243.65555    246.34699    276.05962    251.22796   
397      234.21877    215.54636    240.73268    253.59123    253.85618    223.19535    250.15342    258.50657    228.02104    244.01474   
398      243.24911    235.10091    222.18907    248.49210    204.95924    227.05460    229.70676    221.63860    220.90226    225.67926   
399      235.99993    238.27592    210.07962    244.85615    229.36733    204.03435    232.62620    244.22309    214.03880    232.80745   
400      202.67020    218.39937    223.44171    217.83151    212.92612    202.38159    214.31547    206.80563    244.65445    213.44585   
401      226.36657    190.78696    215.71256    203.19603    212.83892    210.10176    225.81481    215.96098    223.27787    221.65296   
402      189.10140    206.81855    186.86730    197.55565    210.19780    204.52414    209.41327    197.42913    227.96660    211.22588   
403      208.27612    198.05271    196.98737    209.21631    211.73807    191.52821    211.63666    182.91913    211.36708    214.42575   
404      200.94633    184.63516    195.14880    198.88835    212.51598    198.46290    182.48480    197.20620    194.71877    215.91671   
405      186.47452    211.06375    210.26227    198.18208    198.91666    186.30861    184.85478    192.21681    194.75929    189.17017   
406      180.71398    181.42644    178.97598    187.56833    190.85174    199.98996    195.02340    214.17480    196.04966    209.26480   
407      180.65752    175.00067    195.26147    173.21560    176.56183    199.59491    188.73014    181.17107    182.98468    181.11326   
408      191.75400    166.40487    191.70199    186.08296    167.50309    173.80137    183.36355    176.41148    180.96676    188.75722   
409      167.04303    165.58781    163.36424    181.94844    179.91389    170.76052    183.36088    162.83172    189.87240    182.08489   
410      190.46623    173.17654    172.00025    180.10970    180.15396    170.48417    166.07855    169.06385    166.85571    175.88897   
411      169.87730    172.41190    185.67739    175.01540    168.77364    188.24956    154.18397    186.81653    185.38559    164.39333   
412      168.76988    167.78823    174.04040    162.35630    164.40858    165.55504    159.51574    166.94307    165.46483    177.04084   
413      172.38775    153.73774    147.40828    165.68882    154.33017    159.18710    174.11506    155.04294    153.71391    163.93831   
414      169.04715    168.48431    154.45160    173.99042    166.37817    165.74261    157.05575    154.76523    157.50341    167.42911   
415      150.62379    155.38387    160.43293    155.28785    161.00555    177.10174    166.03725    168.61328    158.37009    155.14944   
416      160.21454    156.74843    149.71270    160.59095    153.83234    156.96658    167.37890    148.65254    152.64892    161.67586   
417      161.10905    156.78139    139.02669    144.87548    165.33388    152.02708    144.10661    153.82199    157.38610    159.30296   
418      141.26052    151.92752    141.47016    152.39316    153.93458    154.75227    150.84563    159.50419    167.69911    152.31246   
419      148.34894    150.62735    144.37496    150.02305    154.26163    155.75722    149.07422    152.94560    151.24296    154.77792   
420      151.32929    152.44119    160.30897    141.05178    149.46670    144.11876    143.77040    136.51588    148.03293    146.18112   
421      143.51989    160.00887    135.81996    146.90966    135.65311    146.72044    140.11493    143.79756    143.09281    145.39442   
422      151.84608    146.76534    151.10260    139.50314    144.91829    142.14445    148.93379    132.97572    148.87171    145.79042   
423      145.38975    150.12234    150.83356    138.37318    149.19617    134.66497    133.29020    144.34369    148.24358    139.80383   
424      138.51868    140.52609    143.93822    131.23255    142.14026    136.93742    138.46222    138.07792    145.44843    141.65533   
425      135.24673    148.47252    143.03269    146.88920    147.01061    130.73642    136.10007    150.65490    141.33915    145.84197   
426      130.43169    130.91332    131.82219    133.12881    134.54491    147.80682    140.45991    142.32840    139.85318    142.83070   
427      128.78975    136.39290    131.10493    129.40494    136.40989    135.56634    133.02984    133.22356    132.40238    145.71471   
428      125.14325    127.90345    133.79129    142.28812    142.95398    138.82198    129.06766    134.56754    140.88710    139.17390   
429      139.02254    136.59985    126.81850    136.10913    129.21540    133.40317    131.88856    132.04092    129.32648    130.95668   
430      137.63856    137.32184    126.75248    137.19205    128.75141    125.94594    132.93542    135.27871    138.00601    127.31382   
431      136.48460    137.40730    132.87478    121.05471    128.98342    131.02292    124.94236    132.49503    127.28385    133.33172   
432      134.74288    125.59086    140.90430    135.73857    136.54015    133.44649    127.65333    122.31438    138.83807    136.80090   
433      129.48818    131.34687    137.57279    126.31021    137.77779    121.36712    125.70124    131.84003    128.21646    131.26054   
434      140.28380    131.95023    130.96451    121.01239    123.66835    124.01414    121.75576    135.10229    128.58788    136.25204   
435      129.66594    128.51333    132.13158    124.72635    129.35940    122.40768    124.12168    135.62882    124.33701    125.73400   
436      131.55145    127.40877    124.03482    132.89534    120.92986    127.91578    134.17427    130.71786    132.47353    122.26822   
437      126.38589    127.69182    118.12355    126.96705    131.17573    121.88598    127.95899    125.32491    127.99114    124.15229   
438      122.58379    117.49942    123.89879    127.61545    122.54394    132.62758    119.00967    135.02678    122.37893    123.77453   
439      132.57279    121.37676    121.01932    130.63040    122.07694    123.24737    124.22521    118.64318    120.31942    133.23765   
440      133.38101    121.23702    128.72069    133.93941    131.73417    118.10499    118.70569    129.24949    130.38873    128.94707   
441      119.12493    121.78767    124.01341    125.89521    126.83547    129.80677    123.54014    119.16659    129.20922    131.81670   
442      131.22444    128.80569    125.59958    126.86676    120.29018    118.15951    119.37537    122.85333    121.70109    131.44367   
443      119.08304    131.22541    124.30784    126.75566    127.27967    118.59639    123.22309    115.39968    117.76119    123.22313   
444      130.09796    127.47793    123.52617    121.01591    128.40409    120.83373    127.91613    127.83770    122.61527    117.20361   
445      126.37779    126.15267    122.35448    121.45118    120.06612    128.82843    122.33989    120.64614    115.77335    118.01964   
446      123.64823    127.97527    121.69544    124.63333    122.68305    125.18404    122.11744    116.99345    115.53545    122.62508   
447      120.12406    116.72075    119.04144    126.56144    120.25412    117.12090    128.14985    115.15684    116.89211    117.49204   
448      127.61763    120.06400    115.19817    128.49897    114.30658    125.30054    116.08862    120.66418    126.72797    115.06187   
449      123.11534    122.07543    115.85359    125.04198    121.51370    128.15887    121.10864    128.32611    126.62634    121.95102   
450      116.06368    115.20997    124.69042    113.72953    116.75829    124.10925    123.62048    125.21228    127.84220    113.74009   
451      113.32205    119.09917    127.23372    122.06403    117.43643    121.86076    125.15764    119.86230    124.95925    126.54100   
452      123.73363    115.08508    118.74899    127.00673    122.89966    116.32443    118.75849    114.73927    123.27696    114.31008   
453      116.56713    122.07253    118.52302    121.21265    124.33655    114.59533    118.56796    115.57208    116.64225    114.12988   
454      125.42281    117.32277    121.00438    121.77200    115.06214    119.21797    124.08786    123.89724    120.38949    127.64544   
455      118.51207    112.44428    116.26623    119.29013    122.11227    115.11553    117.04120    117.36448    119.43426    120.49495   
456      117.82254    126.60325    116.67598    121.55426    125.22305    121.37086    119.57594    125.96803    115.74605    115.47817   
457      119.50270    115.52111    123.45414    124.96064    119.29657    116.82649    116.03604    114.04726    117.95410    121.65657   
458      118.93957    117.40016    114.17049    118.53251    123.76668    120.26675    125.23239    126.30335    114.54710    112.66310   
459      122.07510    123.61922    123.46475    123.07702    124.22056    126.13529    123.65882    115.22108    111.63265    111.89681   
460      123.46946    120.82282    114.49730    114.55100    125.05293    124.56154    113.12186    119.55105    117.77588    121.97542   
461      117.36223    123.37480    112.86159    117.85121    119.97815    123.23859    116.97323    124.31819    117.35584    121.88099   
462      121.80569    123.72005    119.20477    123.60571    112.06351    126.07365    116.76091    112.67511    120.80843    114.96892   
463      120.32881    114.78589    120.33891    117.71077    113.34139    115.93476    125.69652    119.39260    118.23626    125.19172   
464      115.33138    120.12172    116.59662    125.56409    120.75652    115.01931    121.73213    112.92137    118.69695    114.99971   
465      121.62890    125.38489    122.87222    117.19828    121.83984    123.34390    112.07868    125.30316    111.62362    120.93835   
466      116.66327    123.53418    122.20325    124.03528    125.36664    124.57364    111.83731    115.84498    112.44430    121.45006   
467      115.87842    116.79793    122.57026    116.49476    116.45365    117.55334    122.98249    119.58104    118.30806    123.07680   
468      119.69893    121.48731    117.86576    124.77787    119.11742    122.88102    120.81380    122.57545    124.80291    120.37403   
469      123.59398    113.94273    113.06918    117.73450    117.06662    115.75096    125.65624    117.23983    120.73991    115.81079   
470      112.74198    113.46919    113.34032    119.83748    113.01615    121.29991    122.95533    125.64087    112.22673    116.32491   
471      121.98412    118.62861    116.01524    114.18603    117.10291    115.23439    122.45716    113.23721    119.32190    122.55085   
472      122.11590    117.27181    121.80219    125.39060    115.54782    115.19798    117.09297    112.08855    124.57230    120.75192   
473      124.68866    114.37135    111.85669    113.76097    116.31718    122.25023    123.34090    116.09061    120.18959    120.50328   
474      122.75821    114.19324    116.94290    118.67331    112.19312    118.72155    115.92241    125.50342    122.62256    123.72766   
475      121.62248    115.80783    125.52803    115.43728    117.46532    121.80203    125.24432    120.98714    122.06085    111.52082   
476      119.47487    112.00045    110.75237    110.85972    119.84151    117.14781    119.53177    116.15534    111.65286    123.62288   
477      116.47527    123.34264    115.56044    112.69451    114.17080    111.60463    110.85413    115.70421    110.53875    118.70301   
478      122.37717    111.68745    121.24528    120.39891    116.65145    116.75790    120.16402    113.28060    115.55505    113.73371   
479      118.19592    112.05736    114.50521    111.06928    111.41399    114.12943    115.55394    110.39289    120.14136    124.76320   
480      111.61366    125.19495    120.10637    112.05248    113.87138    122.77208    118.30816    111.97725    116.75310    112.73947   
481      119.77886    121.51866    120.12979    118.78112    119.77521    119.77450    123.95960    121.07797    112.08625    117.18949   
482      115.42627    123.48324    122.97034    110.39254    119.99814    118.81565    113.35415    124.60521    124.60623    122.75470   
483      112.63199    112.04006    111.58530    112.48406    121.87591    113.91317    118.36020    114.55813    111.63778    116.41817   
484      110.70738    114.89852    124.12084    118.57181    111.25829    120.31547    117.16653    116.07069    121.80479    121.41073   
485      123.48494    117.53787    115.73440    114.02023    119.36493    118.53125    119.72011    114.63153    114.58957    113.48085   
486      122.37809    112.38498    112.19458    110.19852    124.65174    122.02231    124.62342    115.23590    120.48519    118.37590   
487      117.48006    112.12561    112.85699    111.39354    124.35469    120.10012    114.45857    120.85442    116.19238    121.17349   
488      112.96867    122.54311    111.80806    112.38907    119.58842    115.63378    113.79713    124.15821    110.50309    117.01455   
489      110.90270    113.34216    124.74950    111.15120    115.53939    120.70148    113.44870    110.55581    113.59907    118.02649   
490      114.69032    114.69268    113.59128    123.73706    112.39088    122.45343    122.37491    124.08148    111.88271    113.80834   
491      112.96017    114.68235    122.45162    115.59435    121.67095    123.21300    115.75609    124.97314    117.96876    111.18529   
492      116.33540    113.79221    121.92727    111.56709    113.50241    113.52911    116.49034    121.88326    111.77832    111.07748   
493      110.76505    125.01355    112.85576    110.30526    113.26158    115.86347    119.87936    117.56184    124.91259    122.30909   
494      117.77151    120.23188    115.48961    120.97978    123.66197    119.34252    121.00900    114.75779    121.89852    118.61327   
495      118.89684    121.62968    124.15997    116.23383    118.20435    123.23218    115.00624    122.80146    114.29256    120.93977   
496      117.96379    122.13738    118.10650    112.73861    113.73703    118.49690    112.19908    112.39438    114.79801    113.77965   
497      111.95939    112.28185    113.28712    116.61329    117.98851    116.82105    124.55798    111.22539    110.40606    111.02624   
498      111.62966    114.89547    111.77877    110.86501    114.56794    113.87120    114.36196    118.48166    124.38818    117.66347   
499      122.08973    122.07402    122.37787    111.37966    120.26914    120.60646    124.91124    111.45199    121.52037    117.07923   
500      113.25372    114.85768    112.00448    124.50089    123.35472    122.47348    114.93088    121.43602    119.60977    120.81452   
501      115.90278    122.19969    120.93050    117.77225    123.16070    114.01529    116.45371    117.62843    119.67642    123.48936   
502      110.44247    114.58773    119.67275    121.61524    113.71585    114.14010    121.73960    113.64346    120.37183    122.11567   
503      119.64920    112.03903    117.90998    117.57395    121.98936    111.58884    121.68923    113.57220    112.65791    115.25300   
504      122.62054    121.80864    120.81800    116.88913    119.38327    111.49569    110.65157    121.68647    115.77740    110.14459   
505      118.02315    114.38002    115.28527    112.61107    112.81373    118.55069    116.68934    122.44156    110.35415    124.86294   
506      114.08740    122.07063    114.02914    112.17382    117.85118    113.68157    122.00467    123.74980    121.89820    119.00674   
507      112.98538    113.33806    120.50967    111.93585    123.20249    110.60179    116.54464    121.83385    111.28875    113.88493   
508      118.91593    114.97452    117.07110    111.53818    117.65320    112.44889    124.66819    116.46520    120.67095    119.20921   
509      120.79149    124.62663    113.16888    111.65804    117.88827    121.63309    115.62538    123.68973    111.48603    121.00997   
510      121.76644    122.02557    111.38541    110.47385    119.39431    116.97212    118.63070    116.98297    124.50663    124.32878   
511      118.21378    119.69255    123.76231    123.25484    120.96730    111.32772    116.65397    123.89921    112.48874    121.62994   
512      120.92512    122.68646    122.78517    112.72687    122.97300    121.69259    115.29078    110.05907    115.11922    110.26700   
