SLC Damping Ring Gated camera results.  10 e+ verical profiles at I=0.25mA.  
The distance beteeen each pixel on the gated camera is 1 micron.  
Pixel    Pic1(Counts) Pic2(Counts) Pic3(Counts) Pic4(Counts) Pic5(Counts) Pic6(Counts) Pic7(Counts) Pic8(Counts) Pic9(Counts) Pic10(Counts)
  1      118.05825    113.61508    124.17299    111.03474    124.37903    122.81615    111.34408    116.03247    123.85668    112.56462   
  2      124.09722    123.79325    118.90335    113.57962    114.62646    115.99061    120.16236    115.50316    114.73269    115.72870   
  3      121.50423    122.26443    116.46056    115.26166    110.37556    111.51102    114.84702    120.84496    111.47221    121.19932   
  4      121.46235    117.54972    111.48898    122.64685    115.20010    123.19922    118.92630    116.53775    115.54687    110.79104   
  5      112.43702    123.62707    120.06699    119.53636    121.49764    114.51450    113.16134    115.84164    117.39233    121.92982   
  6      119.58051    119.52547    120.76296    111.13428    120.46395    117.54386    122.09020    122.65067    110.02108    124.54284   
  7      116.24967    124.36399    123.86854    121.13544    116.26609    120.42848    111.00590    113.24492    122.41301    122.54163   
  8      115.41331    117.70921    120.98567    113.81626    119.74825    124.86802    112.61732    112.70446    124.60964    116.52597   
  9      116.52162    123.55046    119.80059    119.61914    114.92045    123.00936    118.11889    120.20837    112.60492    118.74038   
 10      111.64419    113.84028    111.19756    122.74351    112.87875    124.31563    116.41062    117.70121    119.42128    120.11466   
 11      120.27617    113.85314    112.04275    118.21909    121.15605    113.69378    121.95379    113.70417    115.63695    121.98823   
 12      116.93325    113.97118    111.38554    120.44083    115.04856    110.19159    124.68953    112.17891    117.18184    117.30162   
 13      117.13457    121.38552    111.78350    111.56373    116.74352    113.52015    117.21288    118.08261    111.70636    118.66952   
 14      115.38234    114.40138    115.76089    111.26277    124.84078    122.91540    111.56475    118.39081    120.16656    117.81165   
 15      114.06014    110.08912    114.80310    111.19735    114.29337    123.83692    117.90845    121.82408    110.76440    118.03274   
 16      112.12940    116.49198    121.10901    111.60415    124.04292    122.66347    112.15544    123.05645    117.72419    112.90973   
 17      115.36274    114.99086    121.63051    122.56766    123.92713    116.51762    118.79640    120.85672    115.70781    122.25671   
 18      116.44408    111.54424    110.65117    113.27566    124.32432    119.62351    121.14819    124.03351    121.80293    121.42494   
 19      111.57421    121.48091    119.22948    112.61273    122.46296    112.68849    119.92769    113.68432    112.77099    119.53096   
 20      111.05727    122.52807    116.44925    118.55297    111.46658    110.57860    118.91037    118.02721    111.78347    119.12207   
 21      116.00662    114.52412    115.65853    114.99818    114.05914    113.71214    114.14032    115.60720    119.94548    123.71768   
 22      121.64523    116.74928    123.45319    121.77701    113.53959    116.55212    114.35375    121.27730    110.19199    117.42994   
 23      121.58249    115.69507    117.04251    122.74602    115.59083    116.62609    112.91060    117.19338    121.79721    116.05742   
 24      120.56095    122.06176    124.60230    121.83198    111.71116    113.97448    120.93168    116.07143    112.38298    111.35712   
 25      111.51804    110.36424    120.53857    117.24725    113.76873    110.24020    110.67813    111.46232    122.71800    122.39090   
 26      122.83558    122.52987    123.74825    122.29489    115.39899    114.04508    123.80023    117.70203    123.91569    122.67056   
 27      114.49742    116.45885    114.87092    111.32804    117.74494    123.46081    123.07992    122.48092    121.58099    120.60691   
 28      117.19285    114.98895    117.68048    119.45660    119.77654    112.06466    120.08735    112.78259    113.80727    113.95607   
 29      111.22253    114.11191    120.78536    119.69303    118.04866    122.93021    120.78179    121.27379    112.67668    120.25875   
 30      120.42379    114.50639    114.89540    121.62809    110.07332    121.47115    114.62056    113.04001    122.05201    123.71980   
 31      123.65178    110.84290    114.93101    120.19276    114.26041    124.47914    124.54293    123.77229    123.68319    110.61812   
 32      122.59198    113.62644    124.99926    114.33023    124.06618    114.01482    110.03679    118.00080    123.51994    114.81282   
 33      117.70590    112.53661    112.49447    114.26397    110.07834    116.23235    122.61296    114.91109    119.84913    112.83838   
 34      111.83132    110.98507    122.56956    123.95028    122.32754    124.18760    118.00234    110.72935    113.32290    112.44325   
 35      123.22577    124.05458    120.50007    115.14308    114.24739    118.41118    116.99257    118.62913    122.81699    110.39292   
 36      111.62842    115.19812    111.79250    120.80080    122.06819    110.47299    117.36923    119.53080    119.16189    115.96621   
 37      124.22812    123.39513    110.55684    115.49905    110.12946    110.49092    122.09237    115.60050    113.41045    122.73799   
 38      122.73724    115.57926    119.27736    117.88133    110.22997    113.80108    119.32764    117.59431    122.28998    114.41952   
 39      111.86977    116.81554    116.91308    122.27340    110.15724    118.09415    124.27889    117.66386    115.20304    110.74767   
 40      113.53444    119.82488    124.91445    120.96632    117.81835    115.72796    119.37480    111.15128    114.63824    117.25115   
 41      112.89329    121.93882    111.13742    120.46464    110.43724    116.92970    113.49663    113.12691    112.54187    115.28421   
 42      116.93165    112.82593    110.93551    112.59496    117.99139    118.24886    114.32135    119.38634    110.91087    124.05573   
 43      115.37917    111.67286    122.03182    113.39125    112.86617    119.06690    117.04252    113.27239    121.94903    119.46652   
 44      124.64945    123.07742    110.27286    113.92634    122.60671    120.35843    121.83806    117.50784    118.50303    120.84296   
 45      115.22034    117.66310    114.66959    116.90677    113.19189    124.88431    114.46547    121.35344    119.47353    119.53934   
 46      114.75311    116.86678    121.85866    111.69547    111.19501    123.47709    113.00384    117.03047    114.62023    116.75634   
 47      120.72272    115.39494    115.72761    111.57533    118.39025    119.27449    123.31692    113.60576    120.55956    114.50536   
 48      124.58436    111.74057    121.41848    124.30526    115.48132    110.74124    117.91390    121.53701    113.87051    113.55459   
 49      117.32417    115.26639    116.48260    112.27190    121.38164    117.59644    111.35181    123.72978    114.35381    118.45625   
 50      121.70702    112.01358    122.66928    124.57865    115.51694    112.33167    110.85746    112.26788    124.07142    117.07741   
 51      118.33368    121.56657    122.17541    112.72494    113.35006    122.88723    118.93495    116.44664    122.64537    121.90180   
 52      123.69263    114.97017    112.27607    119.33637    124.69768    120.40128    112.74347    114.40075    121.93879    115.31278   
 53      122.54950    113.85815    113.21607    115.52311    115.68906    111.86767    121.78105    110.88635    123.92495    122.19352   
 54      115.62679    119.60052    124.83390    112.91504    115.80959    116.03701    110.25731    116.57178    119.57012    123.11680   
 55      115.01859    110.39780    117.07690    119.77083    117.22647    124.33484    120.60383    114.20654    112.70034    123.23755   
 56      123.23524    121.38513    113.55888    110.12677    124.21225    120.71533    110.74028    110.27140    119.18559    115.28687   
 57      113.00532    117.66113    114.29984    114.35420    114.44651    123.33826    112.83824    118.88641    123.19211    123.40291   
 58      123.46727    121.09643    121.08427    120.50801    121.85118    110.25504    122.44196    118.48486    121.32758    116.04063   
 59      111.90927    115.37569    117.48449    114.03902    113.87358    113.21158    112.76358    114.03621    112.56759    114.52637   
 60      111.87048    122.73065    124.12798    110.38174    123.21353    122.30687    121.69540    115.08205    117.04100    119.24101   
 61      112.82838    111.45198    111.03741    122.56629    124.68828    122.42682    111.18016    119.57137    118.33963    112.35644   
 62      113.79632    124.25761    117.69625    122.99909    118.05634    112.15670    122.28057    116.83416    113.62095    122.90550   
 63      119.52093    114.63657    113.55657    118.88402    111.06446    111.50618    112.60422    121.06121    123.23683    110.41281   
 64      124.91945    111.90161    120.04685    110.71293    110.14623    124.35218    110.73923    120.12482    123.58189    119.48575   
 65      120.70167    122.90213    121.10912    117.91122    115.91763    118.94156    118.91299    110.00147    116.52597    123.11680   
 66      110.19888    116.46321    111.06074    116.61886    120.94993    113.07066    116.56603    114.21212    124.63637    120.19333   
 67      124.03414    117.33082    111.16672    111.49961    123.73708    119.61311    118.16929    112.28039    120.94936    122.59956   
 68      112.76876    114.06335    112.18108    120.62637    110.42095    115.29919    115.51771    121.55039    115.04488    110.23445   
 69      122.58596    124.49559    116.90746    124.92449    122.51514    119.08402    121.58761    115.03149    124.26264    115.85648   
 70      119.17495    115.31003    116.14649    110.03727    116.69660    116.17668    110.32571    119.30195    119.81840    115.79604   
 71      122.73591    118.81613    124.19781    118.19069    122.82197    118.11858    116.18896    115.99772    118.44345    114.85892   
 72      112.34416    124.44686    120.71417    123.71012    117.05314    124.89094    117.38289    123.40748    111.92194    111.04798   
 73      124.27450    124.32544    118.97605    122.55174    122.91098    120.25144    124.11538    114.57218    121.03345    114.04369   
 74      112.11062    124.75565    121.40955    120.36513    124.88766    112.32440    117.63974    112.64999    124.69911    110.78346   
 75      112.59528    119.72382    121.05694    111.30613    110.41682    120.22038    114.52643    119.81596    111.73087    119.52153   
 76      117.99153    123.55354    122.40936    114.71863    112.25672    119.56386    110.18073    114.68474    113.83578    123.54713   
 77      123.00001    121.32381    120.14727    119.83450    115.74573    120.47120    112.37665    121.86091    115.60561    113.50257   
 78      111.39512    114.94594    112.07430    124.66766    119.37124    114.88934    122.08654    124.54976    122.79086    121.94753   
 79      112.02029    116.15532    120.09025    120.74520    115.23128    124.04766    123.84297    122.89317    110.90968    115.41032   
 80      117.72909    110.15504    120.91134    124.67411    122.70463    116.05019    112.24090    111.24896    112.60343    110.73249   
 81      120.07230    118.61808    124.58321    110.78819    122.85668    115.34080    113.73805    112.25025    117.08310    116.76590   
 82      111.03983    124.00354    117.09246    110.61539    115.32946    110.18656    118.74851    122.10322    110.27366    123.52486   
 83      111.88267    111.58872    123.91959    117.45807    116.16645    120.05279    110.76833    124.72497    113.39880    117.83291   
 84      115.42338    124.51617    116.82085    110.24882    112.25232    114.04744    112.92281    111.23935    110.29304    116.17466   
 85      123.78963    111.84856    112.44872    124.54245    114.49959    117.69530    110.84927    113.55151    116.25991    114.95233   
 86      124.35396    119.36851    115.15421    117.73859    118.69218    121.80159    120.78953    124.27843    117.16959    116.80384   
 87      112.72452    123.69773    119.55581    111.47851    112.52421    113.94365    118.48122    124.95397    119.06996    121.84416   
 88      111.24135    110.89521    113.39082    115.75620    118.56375    119.80604    124.74381    121.48324    115.89688    120.81213   
 89      115.15886    113.82460    113.80113    124.53252    123.38119    123.00839    111.07375    120.18179    121.27164    113.05811   
 90      114.65608    122.78677    115.02436    111.18233    121.56232    119.51909    116.89578    111.83769    122.47540    112.86632   
 91      115.56964    114.85833    111.58571    112.93263    113.18416    110.53163    120.63329    120.36907    111.98843    110.05624   
 92      118.97083    112.98808    117.31856    115.94266    116.68208    120.74656    120.02638    118.24557    119.26335    120.35744   
 93      117.53895    113.87753    116.53799    122.40310    113.82182    118.30462    119.31313    113.04338    114.46836    117.28917   
 94      124.94362    116.01764    113.58326    124.23111    112.75288    124.28440    122.83793    114.60394    120.55208    120.90374   
 95      123.94994    114.42211    118.24598    122.82831    110.65186    121.76367    124.41168    116.95828    111.18965    114.88630   
 96      121.21230    121.12159    116.16455    110.55562    113.01800    119.00105    124.51667    118.07980    124.00207    114.47593   
 97      113.46658    124.91777    116.60146    119.59136    112.15685    120.66143    124.11849    111.86002    120.76276    116.35312   
 98      113.61058    123.70730    113.27378    117.96765    115.39704    111.06516    119.25277    116.77724    124.51248    111.17787   
 99      112.44517    115.14171    113.95548    118.85787    121.37275    117.49325    118.07353    111.01614    110.89117    113.56379   
100      120.22563    119.51117    113.59531    114.00959    113.58181    116.50193    120.84062    120.55051    123.07226    113.09436   
101      119.90085    123.71161    118.07119    123.67736    122.87630    111.66070    111.41441    112.61991    116.99073    124.29424   
102      119.19536    114.22418    122.25802    115.61396    119.10392    121.41191    114.31182    123.67598    122.48346    120.80192   
103      115.31741    123.14894    120.77651    117.01452    124.21873    118.77863    111.04656    116.49144    110.77229    116.77842   
104      112.20542    122.83051    118.09327    111.13738    110.26486    111.48084    120.50204    122.65308    113.82317    123.59912   
105      115.70923    118.79113    123.78641    119.28178    123.59480    112.08150    112.62931    120.58953    119.86097    118.72644   
106      120.76416    123.32323    110.25962    114.24643    116.40735    110.14694    117.69700    113.43623    119.81709    120.41350   
107      124.71956    121.55948    112.06818    114.18565    118.87061    110.37806    115.40696    124.87636    115.45999    117.42173   
108      113.06157    111.10299    110.97259    123.57646    119.30929    123.23388    110.32766    119.94064    124.78256    116.28481   
109      110.56792    117.87870    120.10809    119.79269    124.28387    117.27750    119.83431    116.48700    118.87547    113.94238   
110      123.33160    119.01771    123.51693    116.37025    111.39711    121.99438    115.60022    113.93116    115.10806    118.32078   
111      114.35737    113.82740    115.21788    117.50116    113.53254    110.99689    112.39932    116.28529    121.91804    112.69266   
112      118.52106    112.21521    115.40503    110.90141    114.30831    118.70054    121.46679    116.16017    122.46694    112.36475   
113      110.04270    121.81742    117.14672    123.93391    121.23064    121.50545    120.81937    124.16214    118.43192    111.88046   
114      114.07018    113.81376    118.50026    115.48673    121.50662    112.58066    117.65083    111.75061    121.21257    120.00462   
115      110.61901    115.85778    123.49120    112.07106    120.88306    111.73882    114.13361    120.46819    111.81058    111.58419   
116      123.28047    112.06896    110.87914    117.36630    110.62847    119.83386    120.63923    115.47069    114.39166    116.61060   
117      123.59039    116.33657    123.24594    110.93000    113.60540    114.03765    119.80815    117.76052    118.94654    114.90328   
118      124.35855    118.30951    120.80713    120.98178    114.50467    122.13193    111.21871    111.19761    124.22417    118.01787   
119      121.64849    112.31499    124.14140    124.16570    115.61975    123.44876    113.09007    111.92995    113.05693    123.81634   
120      118.28793    121.38098    116.68976    119.87653    113.32355    120.05067    118.81825    121.02301    112.06373    113.73633   
121      115.07666    124.98059    120.74348    119.16513    113.42548    115.84076    110.02713    110.36606    114.00803    119.48669   
122      113.04261    124.17150    123.66138    113.39870    117.77042    110.44540    110.43330    110.83485    120.19678    117.04692   
123      112.25675    120.69058    114.23233    116.52256    122.51811    120.47114    124.66709    113.70803    115.50574    110.79657   
124      121.20894    119.64201    124.27734    111.87330    111.75410    118.59497    124.15093    119.37010    111.52562    112.55007   
125      122.16081    115.27944    114.15855    119.21010    112.10483    116.94626    116.62729    120.44492    123.55967    111.63535   
126      115.78624    117.60972    117.73904    111.62191    120.78262    119.98733    120.51664    115.89275    117.31021    110.87636   
127      117.31642    112.88750    119.95536    112.86272    120.29440    114.60370    112.43676    111.18168    122.04018    113.29530   
128      119.07521    122.41542    110.71446    115.70667    123.21298    123.86630    115.48852    117.95685    110.86531    112.62099   
129      124.82917    123.57851    122.39561    113.58941    111.82005    121.89799    112.14985    124.29359    124.99984    112.95637   
130      124.87801    113.79722    111.94287    112.72702    113.94845    118.54388    113.01127    113.73099    120.82558    114.20189   
131      116.98590    112.00544    116.96611    111.52008    118.34495    112.60603    123.49600    124.24816    113.52964    114.89807   
132      114.92832    118.91508    120.34715    117.09517    111.05893    118.02738    123.19841    116.34740    119.42376    120.11789   
133      118.51437    111.93759    122.67421    124.91520    113.42713    114.51698    121.34571    116.61666    118.60469    113.81463   
134      123.97788    117.10474    113.59582    123.98764    115.01888    119.21022    112.33916    124.75969    122.50046    111.64985   
135      110.42224    115.62832    113.07900    113.72605    117.02363    120.97883    124.10231    112.89998    122.33434    116.39855   
136      121.30576    117.51460    117.55250    111.17786    119.59782    121.05471    117.25100    119.06047    112.83392    115.23243   
137      116.56129    117.08798    120.21629    124.76052    121.60014    112.63919    118.35032    122.93030    119.00570    119.97655   
138      114.29612    116.69662    124.13093    111.62264    113.50375    116.75341    111.71680    121.42503    123.66402    121.91973   
139      115.89647    123.21642    119.89065    118.43671    118.57618    112.33969    124.06435    115.85865    111.25913    117.47773   
140      117.57745    112.87089    124.50456    110.77719    112.84384    121.31640    120.76576    118.60826    124.99589    116.85665   
141      122.30433    110.21606    122.68982    120.65786    113.80258    122.76122    110.12200    114.74524    121.23042    119.97291   
142      114.37069    124.67342    120.89629    114.02767    111.79067    113.76735    118.20728    123.94639    118.49549    114.75437   
143      115.04162    120.38409    120.33170    115.37102    124.76377    115.16594    116.30118    114.98127    124.98211    111.33847   
144      115.42672    113.16460    120.62069    118.71710    123.65975    123.00206    116.22039    122.98420    124.30437    113.48184   
145      111.48052    110.66825    118.93830    121.13059    122.03227    115.39017    119.98686    120.76792    113.28977    114.51707   
146      121.03634    111.15622    117.85875    124.34425    114.82259    113.15099    124.62592    114.87629    124.02316    118.98591   
147      120.03975    124.64297    116.52188    122.45220    124.81006    115.85243    123.23346    117.62703    123.29062    124.11949   
148      111.17822    123.35449    110.06083    113.55810    112.52841    110.06910    116.14221    114.85121    110.11422    110.61584   
149      114.72116    119.53105    114.87131    113.88804    111.60424    120.35508    118.09125    121.61411    124.83371    122.13829   
150      116.80143    120.36696    120.00690    114.54372    124.88489    113.10386    119.57104    111.65152    112.59272    117.15731   
151      112.08175    124.47552    111.97327    116.30877    124.19491    113.54298    124.46745    112.95714    112.66300    121.37603   
152      110.59143    114.07459    111.34693    110.81907    117.75594    119.97174    113.63298    116.47595    117.35701    123.22593   
153      116.50843    111.58827    123.08449    125.00015    120.61270    115.03237    113.73618    111.73706    117.41844    118.70864   
154      119.85816    115.54771    121.03899    116.15411    123.80452    120.30238    123.09258    119.61528    117.64553    112.92783   
155      112.13550    114.48521    110.82035    119.06803    113.00802    110.36648    119.20222    119.10412    120.00081    113.86159   
156      117.51797    118.04015    114.23945    110.42074    123.60432    110.74909    121.15429    110.15767    119.56457    116.23877   
157      124.04903    114.82017    122.40778    113.12792    122.99306    114.01100    115.94247    119.36637    118.90448    118.36873   
158      121.89843    115.16396    119.25312    124.81428    122.08975    123.63361    121.02723    115.57879    119.14191    122.87098   
159      122.62260    115.35378    122.67084    113.48084    112.73541    114.51278    119.94780    118.71257    117.28930    110.69069   
160      117.53498    123.91660    114.81342    114.39763    114.12178    123.76189    118.27517    111.39447    114.14298    118.41726   
161      116.43939    121.53090    123.69296    113.74651    117.01956    112.21982    114.50349    119.03755    110.64700    118.92950   
162      117.29801    110.78867    110.37115    115.34546    114.70888    124.91563    112.37860    117.87290    115.03072    121.72629   
163      111.74686    112.09074    116.64921    122.76803    115.85151    124.54367    124.47992    118.72151    120.53776    113.10796   
164      122.22681    115.07751    120.90449    112.24029    110.56689    122.86917    114.98771    122.74018    113.96741    115.55597   
165      123.76290    118.30750    124.63903    117.01474    123.28092    119.49558    118.48205    122.35078    114.95002    114.24575   
166      121.19999    124.53508    122.57467    123.97647    118.32298    120.00019    122.01735    113.33902    110.46360    110.55156   
167      115.69530    123.74540    123.38687    119.44241    124.84247    110.44775    117.22776    117.74189    114.89661    117.86091   
168      110.58069    122.61040    112.25893    123.89058    124.50797    111.72025    113.52425    116.47136    116.23836    114.50227   
169      114.59674    122.60520    117.80032    124.88356    121.55422    124.86736    121.27651    114.54706    121.66054    115.09159   
170      123.54015    113.36970    122.61767    111.70507    125.33623    118.06257    113.43350    120.06179    124.33606    112.84331   
171      119.77440    110.49734    122.28467    116.00938    118.59777    113.53584    120.63295    111.87091    113.09213    125.85396   
172      126.78439    116.77111    116.29923    124.49607    122.41756    113.71075    122.74310    122.94126    124.54507    116.60245   
173      115.87047    125.09329    122.63599    117.97801    114.52915    125.54940    125.26027    121.28441    120.07688    114.69755   
174      125.26016    118.80383    115.35097    112.62931    115.56090    119.73593    119.85720    117.72131    114.80579    115.20982   
175      114.38201    113.71733    122.96535    116.69624    122.13755    128.12187    119.10234    112.79580    112.72907    127.31686   
176      114.98921    113.80420    117.25017    120.76336    114.20396    118.63985    121.72241    112.53650    111.17134    119.52243   
177      111.85365    111.45740    116.55818    117.47114    117.13348    112.98438    121.24941    114.63202    126.00521    116.72470   
178      118.17954    111.66935    124.83798    116.85235    127.17332    116.10585    114.80629    127.14211    120.59174    116.54523   
179      125.15789    125.56117    115.45902    125.76585    128.21617    129.45648    117.80683    125.73799    120.64836    121.59162   
180      121.20472    115.60259    129.93264    118.54686    117.88727    114.33177    125.18898    119.58773    125.30460    119.47958   
181      126.87081    118.49462    112.10338    111.36666    130.85902    120.49016    121.46985    112.64424    122.51526    126.32494   
182      124.30080    126.91747    117.11897    122.45616    132.81227    129.09000    117.12167    120.61003    118.53916    118.94405   
183      111.87701    121.21363    121.15077    127.97709    115.40085    117.83082    126.51724    115.44426    123.01463    118.50568   
184      119.58487    125.36303    113.76705    116.10458    114.38641    116.84562    119.76835    125.89110    115.08800    114.70322   
185      118.38417    120.30816    124.44046    114.63427    130.08427    117.36232    126.20133    126.60609    126.52894    121.39119   
186      114.55146    131.34996    116.53581    124.22091    114.02543    137.86831    125.35720    125.27621    117.32032    124.60147   
187      137.58111    124.07283    117.57421    116.25113    119.85333    136.50758    124.99139    121.98128    136.78408    117.05719   
188      121.45885    121.60877    125.18154    128.34310    114.69992    126.85936    129.77203    141.93109    123.45454    129.75837   
189      120.77057    140.46071    133.67587    134.42413    134.30820    115.38201    135.68338    142.89802    136.92430    125.04480   
190      130.88714    145.66590    137.21192    129.25534    128.43243    131.75940    132.78213    132.48870    137.74823    133.23159   
191      132.84504    123.95050    129.02444    137.52573    120.18363    144.87038    147.24933    123.77379    131.45937    135.49765   
192      116.17372    125.65638    140.67323    131.66234    120.66875    130.40820    130.99668    156.59965    134.34999    121.96892   
193      122.19435    122.08776    138.96124    131.80412    121.45514    130.86196    129.86400    127.29879    122.76414    135.68769   
194      129.69686    126.88145    129.79738    150.79370    155.42198    133.83712    148.87322    146.06335    127.13422    152.72804   
195      149.01076    143.52086    138.53354    149.71941    135.60306    154.01936    132.15427    163.50859    159.73904    130.52975   
196      157.73425    136.85792    134.21714    145.10787    156.75756    147.88805    146.39079    164.15149    172.69055    155.93648   
197      129.64598    124.23320    133.74799    124.76868    127.04368    163.12804    127.91848    167.58164    154.71831    146.73830   
198      160.21986    159.25947    124.49936    167.83895    138.32468    158.26622    134.67171    133.97385    147.50114    125.80655   
199      166.77778    158.45676    162.67310    175.48517    127.05277    159.69466    145.68633    171.31147    172.37809    181.65446   
200      141.08050    133.00209    172.41884    140.98114    149.33016    175.65146    141.93101    163.78099    170.41876    163.86393   
201      174.51228    162.43328    143.72249    137.48360    180.68240    156.39975    133.56731    196.85901    141.37403    154.66817   
202      151.54373    178.03537    152.79270    184.85116    181.77939    142.28299    183.69661    150.18980    149.86669    182.17608   
203      150.15647    200.52361    166.87852    157.76016    160.55006    161.93019    173.50301    154.15261    163.89955    213.05721   
204      164.94975    193.87999    177.62463    182.66140    194.62650    210.14800    206.65155    139.79462    150.46383    171.03127   
205      192.62695    147.36296    199.44723    172.00913    147.42088    186.57004    163.12211    240.11595    200.29999    160.16926   
206      232.43518    166.95283    151.00085    204.66431    174.58177    154.43863    185.42777    194.33521    187.76853    216.66878   
207      221.48736    179.95428    254.89724    162.08977    225.11843    176.54294    230.85363    181.89571    149.49990    212.87345   
208      174.91826    160.45710    160.23012    260.52884    162.14713    239.52105    190.28106    219.18202    203.08714    164.02192   
209      219.26379    193.41524    204.07860    220.83083    257.99277    286.52264    202.57700    224.08548    263.24722    276.42493   
210      225.62435    199.60116    188.68406    225.57159    254.16102    206.80996    195.09474    272.56941    210.84440    209.62040   
211      257.01452    309.93520    232.62853    212.22116    280.25731    268.44254    258.83392    191.89121    227.82119    244.76503   
212      203.85261    203.39879    321.35774    299.97376    261.62533    185.68112    225.71003    295.50138    235.99539    200.04500   
213      234.88337    327.50164    252.72987    300.12571    192.29843    219.85867    295.31007    320.27852    253.87153    224.77260   
214      238.93935    225.08674    299.76614    301.85064    253.07753    245.69869    280.18952    278.40937    329.82090    327.85015   
215      324.27123    224.81817    327.23540    235.69049    232.40343    315.87409    212.85297    269.60241    305.65257    330.68538   
216      244.45627    270.72767    262.52341    325.01791    280.53453    304.19686    380.35034    290.86098    267.72195    265.76516   
217      304.40120    345.26558    321.24327    245.51780    297.14737    382.04371    322.77558    254.25394    376.26297    381.80154   
218      263.35740    323.94804    378.85036    395.57880    314.13412    413.35147    258.39020    369.78336    377.57674    358.14799   
219      322.63188    441.48595    326.32048    315.78273    376.19438    347.80378    294.59358    361.24057    425.02063    390.49902   
220      429.98495    312.35109    384.10740    316.64975    397.24478    310.93491    324.06099    354.30670    308.22634    364.26180   
221      385.84774    381.68230    359.11517    417.14976    295.38375    364.70424    368.14260    440.07963    443.41163    444.79379   
222      433.00205    339.00012    331.98609    315.54890    414.35691    354.57392    348.78731    432.92513    427.34967    378.59961   
223      468.82514    320.11380    369.79945    377.67118    422.16179    387.02943    376.87568    475.90851    373.71361    405.04808   
224      436.21703    504.54681    444.28172    461.04840    420.59094    438.68235    464.88933    474.09447    476.94802    458.28653   
225      528.01499    487.00789    457.08409    564.92254    410.49753    455.95775    361.58480    450.04038    508.20942    475.86307   
226      554.02752    457.91550    478.14265    534.56557    564.26396    430.53567    555.67178    551.75674    504.05688    459.37849   
227      581.06073    511.03986    430.21732    424.20639    508.20010    615.89271    522.35283    479.78501    514.15644    483.61154   
228      520.46344    620.86243    584.41347    443.49966    581.10372    550.59133    465.92379    636.81513    593.18089    530.67217   
229      527.74646    528.28317    500.06133    657.09661    470.86900    526.95220    573.22667    623.44196    619.24885    680.21077   
230      545.66226    621.28237    629.80764    617.33540    647.84936    679.54804    455.44387    611.43919    500.32720    557.78389   
231      623.75026    707.39172    722.43339    577.97451    616.02174    595.90541    553.89603    647.96196    578.22919    611.97331   
232      660.80530    648.46048    571.87707    674.09483    723.34006    591.13829    676.21579    650.66376    705.32697    684.85861   
233      608.58034    758.42130    703.40674    757.81199    710.77448    732.23132    661.67469    602.91738    656.54155    687.98290   
234      755.99831    731.52693    738.17198    646.97848    707.76563    654.71940    753.98718    788.73777    671.96955    731.11283   
235      803.85590    838.90088    814.61447    800.54634    708.25719    727.19122    700.74539    678.24626    732.13301    714.42684   
236      804.94969    778.33508    797.73920    659.10012    798.69898    681.26514    812.36644    759.03755    751.04800    647.35165   
237      882.61521    662.32936    840.81345    813.45557    785.67142    854.37306    761.21292    764.43897    807.67960    831.02239   
238      721.03453    818.30514    841.95961    769.97832    708.12697    822.68118    783.21096    797.18414    856.97213    844.81185   
239      869.16506    859.00153    920.46421    812.54011    857.03490    843.76277    773.64135    829.17449    811.22317    810.66328   
240      883.00685    797.85455    932.35118    851.64581    807.90970    840.61769    840.07931    839.20912    939.86065    796.05022   
241      866.33957    884.78413    920.68767    934.86166    816.05052    890.57142    954.39548    947.67513    839.94067    853.80296   
242      917.91425    900.66569    900.90799    890.43819    955.99477    951.52600    916.42488    987.55610    964.15268    916.43425   
243      901.44003    922.60421    906.44367    856.39679    936.91136    970.89048    915.82634    924.15394    921.44426    981.36505   
244      921.29405   1002.33701    981.29521    986.75757    896.75370    983.80536    934.75786    989.87469    989.02721    992.49380   
245      971.09229    952.15854   1017.39622   1010.04645    991.45965   1018.98883   1006.58435    940.88842   1013.60740    975.81347   
246      930.70106   1001.50325   1052.08364    965.83280   1011.55181   1041.66826   1022.89536   1063.05518   1029.14890    976.58136   
247     1081.82829    948.53567   1028.72869   1017.05298   1003.19987   1027.37214   1037.56684   1023.42643   1053.44137   1035.62487   
248     1024.56525   1048.17553   1046.95851   1014.13789   1051.51415   1054.69525    994.55021   1049.87630   1062.31950   1024.08557   
249     1085.61763   1096.40734   1073.95567   1066.67227   1086.90804   1080.12953   1068.81035   1094.86474   1007.35572   1029.32051   
250     1098.98590   1071.08761   1060.60831   1083.50654   1029.16688   1098.61867   1104.73492   1118.16843   1092.13607   1101.46127   
251     1076.37722   1107.15999   1113.82074   1113.22842   1078.62759   1067.36064   1088.89769   1099.21199   1056.81777   1097.07461   
252     1048.71985   1095.52944   1153.16933   1096.13983   1090.31979   1124.67193   1097.02880   1081.88543   1107.79584   1129.48177   
253     1121.31769   1095.94243   1109.39305   1113.74168   1119.98382   1125.33084   1130.46322   1113.96767   1130.74754   1096.40306   
254     1131.18410   1149.91145   1095.28342   1128.88270   1152.53642   1094.89345   1108.74280   1111.41613   1132.83564   1110.45153   
255     1118.46635   1126.99117   1148.01662   1167.44443   1110.78883   1137.63125   1142.82314   1157.65989   1117.87152   1136.26679   
256     1119.53546   1128.25292   1116.14698   1165.22158   1130.67958   1142.34304   1140.50594   1154.24333   1138.79139   1118.24609   
257     1138.32034   1122.87273   1157.46477   1123.42990   1124.78658   1147.62046   1130.88752   1162.59912   1121.35415   1129.73452   
258     1114.12094   1157.23685   1134.26188   1125.29908   1150.53033   1161.03953   1119.10379   1151.51089   1145.75096   1139.04893   
259     1128.29843   1143.96443   1112.46478   1120.09574   1140.00242   1168.03803   1127.77200   1141.71392   1131.88495   1170.83124   
260     1121.90410   1121.33283   1146.14162   1113.15116   1166.53613   1164.48396   1157.59825   1122.95405   1142.50946   1149.28275   
261     1144.25407   1169.84401   1153.33290   1132.64320   1156.40109   1127.49633   1105.19682   1105.87214   1144.99323   1151.83860   
262     1121.66206   1125.88834   1150.05467   1120.24937   1135.31566   1136.33541   1126.03139   1141.94182   1153.69212   1149.62935   
263     1086.37055   1115.83405   1139.53441   1113.76256   1108.91721   1145.44854   1134.32734   1105.97212   1098.17493   1122.33942   
264     1099.52424   1119.84213   1107.00469   1118.04030   1105.75837   1103.31013   1073.26859   1100.00638   1074.05269   1122.09051   
265     1104.40647   1086.15816   1076.68014   1113.27132   1094.76736   1070.15670   1111.71187   1074.94018   1072.55424   1094.49599   
266     1076.57437   1113.02615   1107.73873   1058.24423   1065.11658   1110.27884   1019.73520   1054.57563   1100.20005   1084.38935   
267     1047.30993   1048.36106   1088.93452   1077.22601   1119.03961   1102.15642   1060.53205   1052.26594   1041.70602   1075.07497   
268     1050.73391   1076.28993   1080.67297   1018.67973   1046.78170    997.35827   1045.03606   1033.85582   1077.29657   1054.68745   
269     1058.07102   1038.08361   1084.82145   1074.53633    978.32249   1008.89118    983.57572    967.35529   1057.70274   1000.78001   
270     1010.29678    955.26580   1000.95888   1018.32409   1016.76482   1045.42251    992.04668    999.91899    963.19153    979.59046   
271     1060.74365    984.73203    935.21970    953.30368    964.90744    924.80491   1011.17954    972.44650    980.69852    999.59976   
272      945.97457   1011.84128    924.53037    975.88704    941.81657    943.15903    970.94766    996.98867    895.05283    979.27825   
273      965.36313    904.86500    982.68829   1023.84866    910.27162    982.92579    925.26350   1019.67196    927.73381    929.01949   
274      863.07834    844.68796    950.64556    988.33422    917.05462    993.12443    852.11001    922.48184    827.28550    960.85529   
275      896.31643    960.13296    883.83136    895.19192    980.40847    860.56237    931.78964    917.75922    832.07532    958.43868   
276      860.56745    824.65700    844.26919    863.16108    822.02009    942.84323    913.74945    831.42675    863.90176    871.82274   
277      833.51448    830.56904    795.56500    933.81706    772.59324    856.14246    842.97611    813.90997    922.25533    827.65183   
278      852.27341    890.61694    855.86813    804.54276    867.41044    803.99716    807.30044    759.32367    713.34641    796.24489   
279      698.01140    711.40624    674.43475    739.17924    759.34523    708.74879    774.12377    668.57643    791.00917    739.48811   
280      778.94936    761.28482    701.76907    681.76156    809.39929    855.36451    744.00284    860.54428    814.51256    865.03569   
281      716.01083    716.55726    801.34824    717.93287    826.01328    726.64432    805.12969    704.58579    602.95971    812.31735   
282      759.15704    627.99415    651.67713    720.24260    645.34654    670.04505    719.81860    578.11811    709.30297    666.84751   
283      777.64841    796.17889    758.68029    689.35639    567.89131    756.13562    637.20866    570.60263    591.80311    674.76406   
284      675.42301    727.74363    718.53553    748.17006    641.03232    589.39182    670.76392    621.69115    681.18764    615.16064   
285      618.61002    505.61894    708.44704    579.60604    652.65071    639.00590    588.39989    611.98268    649.73457    712.33345   
286      665.07351    563.38519    645.11680    709.15127    531.73281    550.85235    546.08409    644.93429    581.15517    616.69287   
287      632.93269    666.47520    581.08535    659.63287    550.82315    478.06437    560.95228    515.81188    492.27473    635.91111   
288      521.39726    446.82148    549.46419    598.10035    575.98732    442.84618    482.99115    620.90504    576.31549    466.36960   
289      411.88513    466.31666    502.61378    492.83178    560.24943    468.32981    440.21021    504.02008    546.05993    528.46430   
290      428.69195    556.22938    467.14829    427.01915    536.05972    509.42843    423.93776    547.65247    508.14418    417.07229   
291      536.75940    524.84337    468.92817    483.16785    457.30263    391.92370    469.20206    524.47742    519.58200    534.37946   
292      435.45247    423.30632    374.55078    487.13404    466.93779    491.10896    441.22377    400.28996    435.41772    358.19638   
293      329.90442    510.84336    469.77221    387.37159    423.79001    392.05669    335.02004    446.24483    466.91524    476.82060   
294      388.66143    380.75708    431.40923    429.41500    389.30828    406.91532    412.20618    309.45136    310.18975    397.63702   
295      420.00568    423.54906    381.42420    383.75484    398.05319    331.16708    321.02660    330.25036    467.65000    321.77920   
296      421.56748    371.58634    411.75800    394.40338    294.11883    391.26180    318.07950    293.47926    372.05568    450.76385   
297      311.43990    427.25809    295.94822    291.64045    298.71114    279.75185    405.65515    322.14077    320.42084    360.82189   
298      289.03183    356.69353    319.22931    293.83814    359.20671    311.88287    386.84739    273.88789    346.94046    436.21848   
299      363.23739    363.14112    291.82832    357.03539    312.75191    253.22404    339.38145    369.57356    254.82822    252.50076   
300      241.54304    230.50539    360.20264    335.77406    363.81843    319.41488    286.47253    357.30363    335.74707    258.87465   
301      309.61607    352.74912    295.92408    259.66035    256.58285    220.13868    315.39761    267.88415    317.13907    301.44566   
302      244.80348    270.96429    258.18612    234.03602    207.69663    207.22894    342.80496    273.16863    231.44772    223.14728   
303      278.04090    267.03529    221.47010    313.76911    259.11076    277.60104    225.37525    302.46906    217.23124    269.27843   
304      248.52849    286.57781    270.51269    202.45916    197.67536    228.36127    244.22547    216.03945    188.00233    311.58402   
305      175.63956    219.41572    265.00383    266.97609    246.12828    286.13268    213.92161    256.59507    216.98735    268.35992   
306      195.46141    266.70595    194.05231    204.68016    231.79549    282.98156    229.63386    201.21400    227.21772    261.54546   
307      262.69017    201.18182    242.72989    281.60133    258.46472    242.83834    218.23799    186.12589    214.81381    196.76188   
308      205.93279    233.85124    161.57299    168.00352    244.74660    261.11415    211.37048    169.40879    220.85719    207.32371   
309      242.73727    182.51808    203.45728    224.52112    200.23305    236.08355    269.09305    177.50406    147.86860    233.73091   
310      176.00640    222.12927    194.00550    191.63836    212.62713    235.13923    215.24118    166.09471    197.81732    198.07434   
311      223.09005    195.48368    211.36751    154.61178    188.31026    211.14846    163.93539    215.44109    203.83387    210.39787   
312      210.05840    197.13042    163.78629    208.80427    161.58748    174.98398    188.51056    194.90305    160.32365    147.98834   
313      194.15562    173.98029    169.50669    208.58403    192.63716    190.75726    198.64296    140.95781    146.84313    181.86140   
314      159.77537    148.88643    175.06241    140.64279    134.33137    140.20712    176.36808    180.69470    169.21592    163.95132   
315      161.57703    138.84095    168.30084    168.02848    156.86573    173.55095    163.56376    144.86538    149.60846    191.81131   
316      171.61710    166.40943    135.77063    159.34496    151.10738    171.92908    161.80768    145.30493    177.20971    181.45439   
317      180.30531    133.65722    153.91942    158.82451    139.45260    126.87604    179.97091    144.97333    182.04522    155.36441   
318      169.88364    141.94191    169.49115    148.58074    158.43825    137.53290    131.69855    142.58077    133.43871    160.01581   
319      180.05295    134.93659    150.38661    151.71475    132.36399    172.62079    128.33216    145.68832    132.69409    140.74541   
320      128.24999    129.51528    128.77244    131.09313    138.49934    162.18832    133.32844    133.23945    133.09121    125.53534   
321      149.41170    119.53067    145.90599    143.62227    131.68223    128.65441    147.32210    133.44906    121.65204    145.70565   
322      144.98077    158.79419    133.30126    151.35849    159.49915    147.29450    127.73872    154.31968    134.78990    136.08524   
323      118.98308    146.55530    126.29102    138.74578    135.29581    142.51827    130.39901    130.49494    115.99551    119.52951   
324      130.57261    123.14127    118.65021    143.03602    135.65161    140.18201    136.30408    130.11798    121.16649    143.38447   
325      139.97249    124.67718    132.03445    147.39959    148.41401    120.75455    129.51488    118.38856    133.14723    143.72784   
326      128.86746    129.29241    129.84529    120.66546    144.66809    131.21568    116.97225    125.64780    136.76824    130.64716   
327      130.51975    120.60144    142.94235    124.92606    124.65078    150.19285    124.82533    125.49099    136.46192    114.70184   
328      131.92236    128.74832    122.52785    125.76259    123.41699    125.05520    135.63207    128.59913    122.40374    140.88666   
329      132.23408    127.72066    124.47911    118.09556    133.08785    130.99106    123.32096    137.09571    124.55465    120.73726   
330      117.42791    111.61207    136.69949    115.10358    134.77079    120.09551    132.40616    126.31405    136.24372    135.83440   
331      129.14694    126.92301    121.39239    122.77393    122.00536    120.73633    117.02170    128.21209    127.06319    116.73603   
332      137.18196    117.24365    123.96295    126.03199    125.31465    113.09113    115.58138    135.79587    115.35014    117.89140   
333      117.50850    121.83568    113.21199    121.38003    133.95752    121.21513    116.70517    119.55006    115.18970    119.30211   
334      115.89987    119.44893    118.59029    115.87027    135.32521    124.98090    131.24640    128.57187    128.19756    126.90442   
335      116.93330    122.28895    117.31449    118.41061    113.28720    129.35029    117.75918    120.81834    125.95567    124.40767   
336      121.67259    112.55496    115.81594    125.71100    120.42373    115.61310    113.33729    123.41108    118.85478    124.08002   
337      124.98960    128.88928    125.34315    115.23195    118.82349    125.57753    115.96524    114.41345    123.39639    125.54698   
338      114.00076    123.50620    111.88993    115.26965    117.65369    122.81945    115.56585    114.41906    115.70155    111.96492   
339      120.98031    114.40394    112.13641    112.41928    114.53844    127.57711    112.32739    126.78103    119.74506    117.12797   
340      120.59808    122.08555    111.53861    114.18597    121.76916    116.26579    126.04726    121.12369    114.65256    123.66871   
341      126.79391    122.03957    119.54535    117.22234    123.79451    125.69053    125.86246    125.37053    122.41592    122.78990   
342      127.05308    120.64886    115.56351    114.01384    123.64096    122.39862    115.14180    116.30047    125.38891    119.75157   
343      112.80901    112.79037    123.88849    118.81965    118.29037    121.81527    115.76526    119.54615    118.25332    120.60830   
344      125.22832    124.90490    118.17323    117.49131    117.61202    114.53196    118.31916    123.17674    114.37129    118.78842   
345      114.50849    113.93374    111.87229    111.80405    117.25380    123.16235    117.46082    124.96175    115.48531    112.31827   
346      119.52257    118.69389    119.62869    111.31573    114.47169    120.34271    116.42183    111.34413    124.54602    110.88249   
347      113.18714    118.70772    117.21635    113.98787    119.70345    120.77640    116.93483    119.41822    111.11408    117.73012   
348      111.92003    115.94631    111.75457    118.81453    113.26729    122.01825    110.97117    123.82331    120.80232    119.00683   
349      118.81779    120.05372    124.07011    116.07144    123.00934    118.33105    115.64977    123.05672    118.26023    111.72733   
350      112.90746    121.47560    119.20762    113.68284    113.69165    113.61923    121.59591    116.64130    117.97122    121.71598   
351      121.60488    120.64503    119.65830    122.94304    114.46710    117.20369    118.78559    123.64724    118.43656    124.68174   
352      123.23433    115.09221    124.45631    121.86632    112.23803    120.17949    122.35010    120.42047    112.07626    118.52500   
353      110.65155    125.06007    120.93810    116.36892    120.57643    110.46237    110.75571    113.80320    116.06977    118.73233   
354      122.87797    122.93910    124.00828    119.84470    110.91301    120.19683    121.80317    120.03502    119.16693    116.27479   
355      113.40857    116.28461    111.66827    122.40541    121.17434    113.55672    118.54232    124.30814    120.87722    113.59446   
356      112.51733    110.91257    114.54161    121.64868    118.55072    124.56810    119.04380    121.51594    118.06177    123.91719   
357      117.17739    112.25407    123.14642    111.30199    111.21761    123.82174    112.30939    112.51236    113.24864    113.29983   
358      124.11647    111.47320    118.39685    121.58616    116.34304    124.96438    113.63429    117.92177    113.13437    115.64753   
359      120.97535    120.57910    120.89728    124.36207    119.49350    110.20764    114.96954    111.21728    117.96148    122.00034   
360      123.89284    121.67980    118.16689    120.83351    111.89305    110.63973    116.22701    116.54487    111.29648    121.91803   
361      112.13634    122.35932    123.34627    115.72904    117.99419    119.19498    117.87560    121.65665    123.34565    123.91058   
362      119.33027    125.01330    121.13356    124.33999    123.18619    120.77664    111.59808    117.79479    122.12852    113.26727   
363      121.20527    118.13626    112.78031    110.04223    119.67637    116.36409    122.14583    122.18907    112.01032    124.23990   
364      117.53707    111.89365    117.64725    116.99458    125.00660    119.47684    123.37107    118.50232    114.18637    119.58809   
365      116.07000    119.54407    110.98322    118.06324    110.28911    124.50143    112.00366    123.99279    119.19685    120.77264   
366      113.75531    115.98908    111.54737    110.17030    124.94362    121.84943    118.63718    111.43098    111.51921    121.09994   
367      111.43057    113.28257    114.69044    114.26988    119.18829    113.77101    111.42389    117.46146    118.55029    111.40249   
368      111.34645    120.86805    114.68559    124.83057    116.92228    111.07600    120.43376    115.09914    113.08555    122.33963   
369      121.82474    114.51022    121.28773    123.69889    118.46021    112.60505    123.72087    122.12648    110.71354    111.70612   
370      111.35659    122.13600    123.53746    123.40603    113.41297    116.79174    123.41343    114.78844    120.90281    123.83488   
371      113.22819    112.36223    123.53698    123.57133    123.93017    112.45224    117.50956    123.76874    121.06431    120.60937   
372      118.91645    110.02974    111.48250    121.52951    124.74462    116.74954    112.51226    122.16667    111.42916    113.20844   
373      123.98292    120.08034    117.90924    114.43327    112.04751    119.42204    114.85576    113.42546    110.83352    122.16419   
374      115.50172    112.04337    121.40618    124.29105    122.85387    123.99628    122.76771    114.91155    116.68989    116.84785   
375      121.24574    116.46399    119.89614    112.31818    111.80746    123.82088    113.44717    117.21938    122.81110    123.28161   
376      113.57921    117.62583    122.35843    114.10197    118.47167    124.47544    110.30093    124.66227    112.56223    118.36299   
377      111.79178    124.89161    124.75537    114.73564    116.94592    111.39918    119.58582    112.27844    119.78280    113.09111   
378      111.54168    111.66588    113.81366    112.94599    114.32953    123.48494    120.06646    110.64757    119.66933    111.71010   
379      116.24185    111.05003    114.76529    123.06924    123.86925    114.27613    122.78893    124.26091    118.33166    124.06899   
380      115.39427    118.77385    110.85140    120.25645    112.47995    114.60593    115.93594    123.82360    121.31578    120.20213   
381      114.65048    118.55811    112.57166    120.77117    123.99593    110.94118    113.02897    120.62651    122.67405    119.88966   
382      112.46399    115.83065    123.08556    111.84489    115.00240    111.71735    114.95068    121.13534    119.85808    115.10136   
383      120.25075    115.98575    120.67297    120.34653    122.99358    115.99091    116.27968    111.61994    123.29496    113.38361   
384      116.82939    111.96326    122.54743    120.74237    111.69679    111.74912    111.42262    110.63676    119.47326    124.50181   
385      112.01059    117.13549    112.54975    120.64093    113.62611    122.40006    120.21077    111.18798    116.03708    112.22197   
386      111.33106    121.78919    122.81175    116.67129    116.66579    118.08811    122.35950    124.94280    122.72947    116.18797   
387      111.20985    110.21511    122.51763    118.98893    116.53131    115.36636    116.34747    116.14096    110.30990    122.67362   
388      122.90210    117.98394    116.49195    110.70626    115.66732    112.35306    113.71862    112.89106    121.54860    122.67821   
389      110.34125    119.54752    119.91745    122.21509    115.02417    122.40601    116.60543    122.01617    118.29900    110.77181   
390      112.30522    115.03253    111.16974    117.07230    115.28801    115.42617    120.30470    121.49472    111.18003    121.72246   
391      115.99750    110.36862    124.05929    113.17558    117.44470    112.52131    117.44277    116.93041    111.11015    111.52203   
392      114.74310    113.88800    124.30570    115.03235    116.26512    122.01049    110.98991    118.09837    123.93696    121.44350   
393      119.98023    114.67507    122.93302    124.73792    116.24906    119.32265    122.59764    111.99089    115.25289    111.90163   
394      117.43768    116.06713    112.34915    110.73463    121.23591    118.01386    124.56687    120.01981    117.47560    114.18447   
395      121.70877    124.12691    122.00297    112.61485    122.66535    121.20915    110.65972    112.64131    115.88156    120.92759   
396      121.87707    116.30980    115.27453    112.17102    117.02496    116.61170    116.34441    123.31266    123.55009    114.02232   
397      123.45397    113.28091    113.30143    111.08677    114.52680    116.36301    120.99622    119.10790    114.78833    112.13783   
398      111.88116    121.23573    121.52856    121.13760    114.47725    118.37147    119.98035    117.22550    119.72732    110.19602   
399      115.84161    117.53142    112.17918    119.05801    116.14066    124.23944    115.48464    122.39434    112.13716    119.40451   
400      115.51907    113.17218    110.81111    120.93173    121.12339    124.43298    112.83021    124.51627    123.50989    117.67523   
401      117.80496    116.66729    116.37634    113.81783    121.34462    118.50622    123.27895    117.49641    110.71654    114.59151   
402      111.11724    112.37222    119.02585    118.38426    114.50216    122.00819    117.00084    110.31848    122.01361    117.64800   
403      120.62002    123.04823    114.17084    117.61991    111.42644    116.38536    117.14314    122.88652    113.71217    120.83744   
404      110.85384    112.08446    112.15103    110.05071    119.70334    110.11349    124.87725    116.59597    116.68788    116.35266   
405      110.24311    115.44263    118.98534    110.45602    111.47478    120.50910    118.71860    114.19407    115.08929    114.07557   
406      118.66499    121.62748    113.74940    123.51844    122.80030    118.15520    121.22675    120.83446    119.43022    114.63168   
407      123.03303    120.88913    116.65115    114.79999    120.42675    118.80532    121.19080    113.12376    123.60027    119.18510   
408      115.19558    116.04211    120.29913    120.66198    121.78354    124.51951    121.10220    123.35999    121.28707    114.55450   
409      118.39629    121.75876    112.45232    116.98666    114.23868    123.59583    113.59491    113.82151    124.52563    121.47147   
410      119.77728    118.11313    118.97537    123.34091    111.79664    115.78428    111.11695    114.73380    123.77072    119.53366   
411      121.03553    112.26597    118.57151    115.33428    116.99345    114.50724    122.54267    110.17554    123.63934    120.09977   
412      123.54979    115.81253    118.36668    110.92046    111.86169    116.25764    118.72127    115.81033    120.52474    111.31581   
413      124.97346    110.93982    112.03586    120.97249    112.11324    117.32072    119.03092    113.10983    113.85701    117.97354   
414      118.97218    120.91276    120.84485    115.59005    123.74246    115.12076    111.63790    115.38060    117.28288    120.02463   
415      119.12411    117.43990    116.34433    116.36849    119.39167    113.78704    122.67568    111.59009    113.26639    119.15290   
416      113.22735    112.71259    112.19987    111.84187    119.86038    115.11231    119.14987    117.10731    124.70097    118.24539   
417      120.47925    112.51446    121.07414    121.20989    118.44253    124.54681    116.02153    121.57547    111.68696    112.92522   
418      114.43366    118.90301    114.44558    114.21290    116.31684    112.06076    117.40985    118.46582    118.12610    110.79541   
419      121.15837    122.56444    114.74451    113.90748    111.44880    117.43110    118.42374    119.80565    112.27138    114.25866   
420      116.30260    124.30723    115.34791    120.47385    121.61560    112.16032    116.34881    121.95349    118.08026    114.22580   
421      117.33655    110.87091    120.68542    114.05643    117.42733    113.36418    117.96294    111.82109    110.22965    112.90674   
422      116.13282    110.37356    120.81457    118.51548    120.19191    112.57579    114.51372    115.61665    118.45036    121.92438   
423      121.73168    115.91416    123.38436    123.27685    110.79981    111.51818    116.96719    124.99363    120.20271    122.64907   
424      111.96140    117.54975    112.49488    121.35627    115.25281    120.10744    119.82677    117.70613    120.31960    118.08062   
425      111.72304    123.20978    110.98193    120.28679    111.21327    116.50708    113.37153    118.78363    120.51497    119.69885   
426      114.37062    115.84620    118.37079    124.32869    122.54803    120.25813    117.88843    122.51081    110.93750    116.35295   
427      116.07958    122.64711    117.73069    116.36834    122.87910    110.47622    110.51110    120.56533    117.69784    124.10405   
428      111.81712    121.35989    122.58492    124.02921    111.81271    111.75347    115.50063    117.07399    111.82569    119.61096   
429      119.20404    114.66161    124.77568    122.09794    120.29732    117.20433    114.75156    112.78779    114.32895    116.53224   
430      122.62397    116.99955    114.49121    111.91115    117.40277    124.81093    123.06924    124.90784    117.06261    123.03892   
431      114.35075    114.83360    120.64288    121.95021    124.34678    114.96274    119.91976    124.48627    116.00413    111.66359   
432      119.91056    124.87047    117.44966    119.90320    124.04963    121.07297    119.83480    112.65700    111.13834    116.98461   
433      110.49572    114.16238    113.34069    119.31024    116.74419    117.75429    120.27905    120.63862    118.19244    112.97992   
434      110.80433    110.36585    116.40184    113.24670    123.73827    122.54103    112.49762    112.27621    110.03047    117.41891   
435      119.10717    116.15021    116.78608    116.99754    115.32291    118.21038    112.67995    118.66439    121.56681    124.63889   
436      122.26463    115.42554    113.38467    122.58853    119.14766    112.75269    114.92998    122.79210    116.98899    118.04372   
437      122.98255    119.52018    110.08377    119.69973    114.75937    113.27733    110.59745    112.82703    112.85971    116.57768   
438      110.06178    123.95177    115.47121    118.03836    112.39022    124.08030    121.01887    123.64174    118.24845    116.43384   
439      118.03893    115.69789    121.70602    115.79572    120.65723    119.78039    112.48996    120.24225    115.02337    115.83314   
440      111.88326    124.15393    112.99518    115.80977    119.17563    121.66623    119.95856    113.77683    111.29575    116.87253   
441      111.88038    114.19597    120.40928    113.81267    115.99478    116.22053    124.12216    114.07483    121.27399    114.79706   
442      120.53071    114.26082    124.79654    119.69220    118.92898    121.84838    120.24696    122.15511    119.79067    124.68697   
443      112.98919    117.50036    110.87611    115.91257    113.66195    118.45874    122.58885    117.66302    113.62353    110.35438   
444      111.53559    112.65801    115.51764    117.56867    113.19156    113.34633    110.50963    119.44282    117.26590    115.13682   
445      121.47745    117.35915    115.79951    118.64721    110.68245    118.99757    111.78381    118.55638    123.48484    110.90982   
446      119.66098    113.27548    110.13394    123.75629    112.36557    121.91156    110.31784    123.46445    121.98469    116.39691   
447      123.97636    110.93578    111.59987    111.71824    121.76347    111.99207    114.70193    111.14523    124.90821    120.73582   
448      122.44724    113.45890    120.28658    110.46577    118.75805    114.20144    121.43210    113.54215    124.24203    111.38390   
449      121.12930    119.01503    117.37617    114.98703    110.40457    117.77773    113.51655    112.92618    112.31032    119.33883   
450      111.09564    124.72468    110.05620    111.38209    123.42090    111.70741    118.10700    111.17788    114.06081    116.61480   
451      117.01801    123.99903    118.82885    123.86104    115.71263    123.63957    116.32947    122.56019    123.94346    110.50473   
452      123.12499    119.91482    116.29638    115.98829    111.92139    117.59147    124.45738    122.21723    124.71631    111.54831   
453      119.64495    112.20212    116.94079    113.07527    110.48763    119.82440    114.29609    111.50858    111.05354    118.63772   
454      112.75602    118.67249    110.67277    110.62519    120.02209    117.38425    116.07378    111.89484    121.97766    121.90708   
455      119.01432    118.81139    111.79142    116.73068    124.85608    115.32724    115.13801    112.10350    124.48902    116.53177   
456      110.10723    121.37354    113.95761    122.81888    123.27733    119.02350    110.87846    123.86996    112.03267    117.65796   
457      113.57967    115.03750    113.52827    118.57697    111.98452    120.15798    124.74611    111.74270    116.01855    118.89691   
458      121.60694    124.56639    118.02761    117.96325    110.20571    115.00766    119.79838    121.32719    121.82284    112.08947   
459      118.15461    120.65474    117.02431    111.47752    112.66356    121.02138    115.62389    111.75245    118.91372    119.48026   
460      124.47012    115.71201    120.71072    119.12359    119.11957    112.01434    119.51707    123.70119    116.33058    115.99326   
461      115.04733    124.90216    113.25763    123.69677    116.70926    121.11551    123.80288    123.14055    112.01610    119.44987   
462      122.65393    120.28881    115.40220    114.96050    121.79057    124.09502    118.77798    120.18366    119.46862    124.10184   
463      115.01541    116.41638    124.13615    123.06652    119.87116    120.39185    111.85937    124.90022    110.62869    111.28264   
464      117.47493    113.60250    114.53671    111.71535    120.80532    120.26744    121.30714    124.44544    112.30692    123.32335   
465      112.02868    115.53447    119.96228    115.82869    114.49194    110.54267    118.17950    113.89441    117.38835    121.07756   
466      112.80911    112.93812    112.54617    113.92005    122.56467    124.54799    124.64325    110.32291    118.82590    113.32503   
467      120.00579    110.61853    117.49613    114.75992    110.04933    114.36430    110.84055    110.29569    123.99377    116.38047   
468      124.23450    111.54443    124.89833    119.04067    111.76028    116.90112    121.26720    116.32465    121.92945    120.92637   
469      121.12844    113.77167    113.64756    116.00511    123.62813    122.10640    120.89609    117.75758    112.23429    120.13198   
470      121.21772    123.37850    119.52680    124.21774    116.77994    112.10511    118.09570    110.59933    117.98206    114.12629   
471      123.19036    121.57574    115.63667    114.98327    120.52483    113.32750    119.40985    121.89702    115.82050    112.91346   
472      116.41042    111.29474    112.15679    110.37065    111.01124    116.92454    123.19327    124.50168    118.80914    119.78582   
473      121.56269    110.92987    124.79425    116.82524    117.27873    117.31337    123.74958    121.29102    122.49922    113.54742   
474      112.03113    110.98799    120.40846    122.91859    112.31214    124.87741    120.55831    122.89409    115.81626    117.63949   
475      113.98303    117.36438    112.02311    112.67871    120.10786    111.43912    124.98900    124.56772    118.20026    122.37291   
476      122.93258    112.16803    117.40873    124.53527    116.66337    110.28200    112.64693    123.79069    113.12194    120.40939   
477      122.05848    115.76937    123.61646    115.24822    122.29999    122.84154    113.13284    113.65154    119.87138    112.87462   
478      116.14831    118.19686    120.84564    121.03923    113.07741    122.97255    123.48250    118.50610    114.27958    121.91151   
479      111.05397    115.43546    122.14137    120.69728    124.75163    121.19818    113.23548    123.72383    116.24789    113.69943   
480      122.63955    123.79850    120.32758    111.07223    120.48100    115.44438    120.09647    112.06536    119.34610    114.87561   
481      118.39083    115.41413    117.90358    110.80236    110.66159    115.27900    110.72584    113.54622    113.68953    110.27288   
482      116.04455    115.89703    113.52553    122.85616    120.40609    110.01311    120.81589    114.33514    124.15438    121.45786   
483      112.33267    122.58205    111.10535    122.84906    121.61413    118.94165    120.91328    111.67439    113.06322    121.31000   
484      112.64795    115.71495    110.60683    121.80790    115.07860    110.28306    118.22891    122.82515    119.33495    113.06909   
485      121.13639    114.46153    112.64756    110.52585    124.83516    124.45752    118.50158    116.58908    118.59955    118.73795   
486      110.25266    117.27284    120.09934    119.40976    122.05331    114.43081    117.78448    119.09590    120.52432    116.04128   
487      124.69507    114.82407    111.81845    115.55737    115.70539    110.21604    117.65587    118.08921    115.92089    111.53974   
488      115.59336    117.27696    119.03403    124.51452    117.34763    117.32782    111.28537    116.03984    111.56622    113.08726   
489      116.00064    113.03786    112.61594    115.85853    112.16435    111.09514    120.33837    112.48376    115.56657    124.13373   
490      124.15465    112.42216    120.80390    121.53163    117.86058    114.66944    112.85786    114.54016    111.11726    123.98733   
491      119.27902    120.28544    121.98409    117.47403    122.47254    123.01209    121.44038    117.93607    119.18701    124.06764   
492      121.09077    111.24978    116.00703    122.50394    119.20715    113.24908    123.27230    121.41481    115.37734    117.37036   
493      122.00253    115.55103    112.79564    115.80938    121.58664    119.30554    124.55624    113.20995    111.04721    117.68573   
494      119.17605    117.10422    120.07541    110.61801    115.72358    124.97670    121.12762    116.63654    113.24321    113.98494   
495      111.61223    123.22591    112.60561    114.17156    119.37894    111.84166    116.88694    114.12218    120.49022    120.57044   
496      114.78892    111.06420    110.24635    124.07878    113.20438    119.14703    111.07925    121.84814    110.05503    115.80748   
497      114.88513    117.45927    117.35572    111.64407    120.81255    123.41260    112.33985    122.23651    123.24881    118.63391   
498      123.75377    118.88552    121.40588    115.49807    124.47212    120.73024    122.67316    113.97429    116.85033    118.74548   
499      117.08641    124.11800    118.41392    119.31939    121.29420    118.36257    114.29100    113.28564    114.51225    112.14185   
500      114.94193    117.14067    122.41875    122.31097    113.99949    110.44310    122.78437    123.27203    116.15301    123.71561   
501      118.10657    110.13183    112.01761    118.71731    118.46067    124.81587    124.18883    119.25009    120.31902    118.68955   
502      114.49938    117.08157    112.38961    111.66058    120.67361    122.14514    117.18681    115.30079    111.70022    123.17301   
503      110.86767    124.56067    119.48334    121.82425    112.05833    124.98379    114.54870    115.01100    123.88240    113.97340   
504      122.67563    124.37507    121.69702    121.40378    121.77639    111.14990    113.05465    114.20955    117.31006    115.86646   
505      120.68822    117.52703    114.46303    120.80325    121.72641    123.59100    121.19167    118.25417    122.64643    114.84713   
506      119.71565    117.60827    110.22834    110.51931    110.25462    123.53662    112.73100    124.35477    113.12467    116.86841   
507      111.19937    120.65146    122.68818    123.37990    116.32048    119.37306    117.72478    115.59611    122.81426    123.55071   
508      123.62634    124.97627    116.61125    113.35569    114.10042    112.12219    112.25661    112.72171    120.88999    110.20163   
509      112.03468    113.91657    122.69308    118.05598    116.17289    122.62023    116.74003    118.38063    114.66461    118.61542   
510      116.42921    119.12839    119.25711    124.43573    123.40432    110.56159    114.36923    123.83384    111.90414    116.30862   
511      120.03142    118.89728    123.77485    112.20133    119.50635    118.18711    115.57748    116.94518    122.22317    119.75976   
512      118.90470    115.73255    113.56918    112.45700    119.39538    111.59437    113.04814    110.17256    113.83015    112.71113   
