SLC Damping Ring Gated camera results.  10 e+ verical profiles at I=1.00mA.  
The distance beteeen each pixel on the gated camera is 1 micron.  
Pixel    Pic1(Counts) Pic2(Counts) Pic3(Counts) Pic4(Counts) Pic5(Counts) Pic6(Counts) Pic7(Counts) Pic8(Counts) Pic9(Counts) Pic10(Counts)
  1      113.56710    118.80659    119.14851    124.30921    122.08613    118.28930    110.22599    120.69726    113.29785    122.44223   
  2      112.93973    119.51888    112.08919    119.38066    124.40467    124.35269    118.23406    122.18144    115.74438    111.27405   
  3      111.28946    124.09850    120.44526    121.30957    121.68825    123.76550    114.30506    123.27212    110.66508    115.01536   
  4      117.04055    120.55024    123.29970    119.47640    113.22815    124.77898    112.38231    116.07839    120.48275    110.72058   
  5      122.31375    122.50318    117.41200    118.68378    123.09699    122.69363    119.25996    118.19074    110.20199    116.02522   
  6      110.01920    118.10906    121.29357    122.63254    120.84584    124.14956    110.27091    110.96639    113.27162    115.76350   
  7      118.77921    117.80449    114.55725    111.40398    113.21841    117.75032    124.49967    111.49723    115.20589    116.77126   
  8      117.76048    118.27403    121.21277    119.04238    112.72234    117.66059    116.09626    114.26476    116.46700    124.87984   
  9      114.50114    117.53273    110.61923    115.97322    118.28635    113.37643    113.34896    118.16114    114.15347    113.71224   
 10      118.47108    113.83458    120.56278    122.91354    118.97461    122.94378    120.58727    120.76969    120.79443    122.07960   
 11      124.95357    113.40556    120.47579    115.31980    118.05324    123.09414    112.83748    123.44252    113.34604    119.37422   
 12      111.48547    114.88528    113.31091    110.33885    123.66075    122.83492    121.88307    120.12354    124.37332    117.04530   
 13      116.28795    122.38535    112.35621    120.37919    116.00089    113.38387    117.77772    118.64264    119.83293    120.33916   
 14      116.63351    117.94184    116.53574    123.62491    121.59505    113.73515    112.50611    121.28532    115.96862    124.23365   
 15      115.99373    116.83583    113.09248    118.61930    117.56995    113.91327    113.46786    122.34436    118.97044    122.80967   
 16      114.69604    121.37263    113.45524    110.06823    111.86234    119.61382    112.78079    119.21242    110.04821    113.84350   
 17      123.71370    111.40582    124.77131    121.18301    114.28529    118.76815    121.46942    110.59305    115.44491    113.21202   
 18      114.10796    120.45452    113.96013    115.25675    119.33325    114.17895    111.89685    122.23339    119.33423    114.11640   
 19      120.56858    122.63088    111.85376    122.36125    116.04249    114.21075    122.17219    111.86973    115.66908    116.63188   
 20      110.28224    115.09591    112.08591    115.80161    114.97563    119.84420    123.56196    121.81219    119.04016    114.85971   
 21      111.00297    111.45670    110.79264    112.46519    117.26141    120.33879    124.40003    119.11465    114.44370    120.44440   
 22      110.57728    117.35981    116.24155    118.68165    118.94109    121.20006    111.69450    115.84044    110.27832    118.48861   
 23      111.86898    118.32870    119.89310    112.40319    113.18299    120.98174    122.13039    112.41022    123.21240    124.26881   
 24      114.38941    118.04128    110.40689    112.31141    112.46902    122.71670    123.61619    121.87490    110.82231    112.18110   
 25      117.93789    120.32738    113.61827    117.43031    114.24212    120.25804    122.37296    116.07641    117.66791    118.94628   
 26      124.84906    116.35881    120.98932    124.05510    113.72024    118.30881    118.96869    117.50648    114.35944    114.73209   
 27      122.41501    110.07355    110.84545    110.77727    113.08728    114.03567    115.71015    114.03007    110.33014    111.08791   
 28      115.37730    124.75100    123.68567    119.60476    119.12561    114.39188    117.89872    124.70827    110.75821    113.82942   
 29      121.44480    115.91124    118.94463    122.70795    119.43620    119.58255    120.69937    111.01967    120.62530    122.51101   
 30      117.80720    122.69880    117.90462    124.26568    119.78189    116.14858    117.39091    117.40707    114.46632    121.01274   
 31      116.59401    118.15822    112.00669    118.26484    123.18048    122.37650    111.12234    115.63151    116.63729    117.36255   
 32      123.40817    113.65758    123.79570    114.47904    124.32809    115.89320    119.20893    119.66550    119.94621    124.15572   
 33      120.60930    118.73635    123.22011    123.31229    117.14223    123.39141    111.58852    120.23240    117.42681    118.06528   
 34      124.24588    122.34043    124.26153    116.73839    113.14118    119.47531    115.24688    111.15811    111.99072    112.69670   
 35      119.99479    115.62895    114.85893    115.63739    119.66464    113.09083    116.99224    118.70254    116.64127    115.70035   
 36      115.77233    115.17615    117.14730    123.13275    110.66089    123.49045    116.59825    117.34161    115.24954    115.04440   
 37      113.98146    115.29027    121.40410    117.47669    122.60418    122.07335    123.60291    119.82636    111.06373    110.91478   
 38      120.02337    110.96492    113.16739    118.16306    121.87899    117.76118    121.25893    124.89114    116.08320    116.09442   
 39      115.70193    115.85866    124.21645    120.18184    116.61697    115.87636    116.90053    123.76484    110.64516    122.55513   
 40      114.61344    122.63159    112.30535    116.99077    122.99633    122.71097    117.07393    122.69571    118.99620    115.70928   
 41      115.77936    116.55372    113.55850    120.61392    118.63777    110.33467    111.27065    113.71676    116.55617    118.62319   
 42      122.14122    115.22869    124.42846    112.76176    123.46717    118.71026    116.09783    123.70289    118.81799    118.25839   
 43      118.92788    123.57221    110.56738    113.05452    120.49006    120.46520    124.58291    116.67441    116.48931    110.44327   
 44      123.18850    120.32600    123.31504    118.47032    113.97150    123.17404    110.31046    115.77992    116.12557    121.33811   
 45      117.46355    118.01527    122.69133    111.19719    113.10150    120.38637    111.68265    112.05824    116.17326    110.25135   
 46      110.57495    120.92151    118.40120    118.30636    121.12892    116.92783    110.61819    117.73484    111.44533    121.09315   
 47      116.73748    123.77444    113.82057    123.15666    123.43665    113.20613    122.41876    124.31279    110.72977    122.86299   
 48      115.08852    122.49005    121.94449    114.84760    111.39618    118.83832    115.71137    121.18017    113.80051    116.59317   
 49      117.07486    121.43869    123.37383    117.73394    120.42582    120.54954    116.57817    121.94611    114.83056    124.79124   
 50      115.39641    113.64140    117.84061    124.39481    124.85366    118.36841    111.45297    118.70810    117.63192    111.69237   
 51      117.56286    117.39244    119.51592    118.41865    115.27315    113.72806    118.45629    120.80914    124.98791    114.66523   
 52      112.87551    119.10044    124.14724    122.52821    123.60997    121.79039    121.03135    116.47623    120.34909    124.91614   
 53      111.28241    114.40306    123.36516    114.76084    112.90566    112.69656    115.53703    124.10456    112.49953    123.19962   
 54      112.38804    114.11179    122.55351    112.67503    123.58083    113.65555    122.10688    114.15236    118.56132    120.07161   
 55      114.07524    111.29342    124.76013    111.78351    112.67945    121.79429    124.82415    117.95004    110.87523    119.82493   
 56      113.49208    116.17470    112.47816    117.67108    124.46415    114.72820    124.42220    110.58676    113.28752    121.51286   
 57      112.85298    120.59457    113.33821    116.23592    120.23970    124.70786    118.74591    125.04250    124.37384    110.95235   
 58      115.07676    113.69547    112.42691    113.74421    121.62625    122.90614    119.66600    115.84816    115.94898    110.86889   
 59      124.45379    123.18764    122.89306    121.54037    117.18086    124.83298    118.82320    120.02607    122.97546    119.67527   
 60      111.53848    119.22922    113.75862    113.41361    114.66995    117.48838    119.87808    120.39401    122.45056    125.04787   
 61      112.43305    125.66017    119.24987    121.03414    123.29144    115.41692    123.97043    122.83847    117.73491    113.36897   
 62      115.82961    115.74830    121.90974    120.32966    122.57364    120.96949    123.64770    119.57813    118.26444    116.07542   
 63      121.95956    125.81522    116.47092    118.18179    114.27538    112.15238    111.89893    115.93437    121.33154    121.71879   
 64      118.89124    120.42456    119.28460    115.87692    120.98334    122.67207    113.74603    119.91193    112.38872    112.79328   
 65      114.58310    124.37686    122.43657    114.34932    113.71599    124.37488    115.98004    124.83796    117.40733    112.74110   
 66      120.81863    114.46015    120.02071    123.33113    114.10890    115.46910    122.66556    116.85120    111.51497    121.27272   
 67      116.10910    118.44951    123.81962    124.57049    115.30432    116.64980    112.50404    123.34210    118.00174    125.15071   
 68      111.75602    116.94142    122.72835    115.32003    116.97673    118.51756    121.23261    117.59238    120.90889    112.22116   
 69      115.93927    112.73517    124.99557    117.59356    120.64623    120.40205    118.80851    123.17255    115.53638    117.83127   
 70      112.15840    123.25922    117.37039    112.75580    118.47836    124.06845    114.29204    111.32889    113.65806    117.96385   
 71      123.21667    119.94603    114.57206    124.32728    116.08041    114.43818    114.09771    114.55026    120.69130    120.27437   
 72      115.35592    122.65866    125.33040    122.19494    112.58802    119.99801    113.29041    119.97169    112.10348    113.96329   
 73      121.51613    121.44975    126.21602    126.53227    123.14903    121.92621    119.26879    117.36434    122.28308    113.00145   
 74      116.37864    125.65365    117.27105    114.86466    115.17106    113.10228    125.08222    120.16063    122.93255    115.71246   
 75      119.49112    120.22823    118.94148    118.57177    122.90922    121.16231    116.21885    126.41222    122.83576    113.48512   
 76      126.97290    121.87225    118.68606    123.65320    114.41483    121.66394    118.39257    118.20406    118.00413    116.38349   
 77      126.42581    118.58086    122.67594    119.69303    120.05297    123.51034    121.63569    125.72767    115.67147    112.90867   
 78      113.04265    123.19272    124.42525    121.83685    116.96991    118.42018    117.86805    120.51131    125.87705    124.75299   
 79      124.74475    122.85817    113.30158    122.02620    126.30426    115.08556    117.84228    121.44879    123.44929    126.13232   
 80      125.85360    124.33714    116.93297    116.31373    121.18905    114.23301    117.31736    121.21986    120.56575    123.40107   
 81      127.39461    127.44155    118.63517    118.04367    127.86281    126.25853    122.42117    119.61250    116.83510    124.24062   
 82      127.27785    126.34213    120.13830    128.75315    118.61357    120.46441    117.39423    125.61767    118.97582    120.92389   
 83      123.92199    124.86379    121.25138    120.49280    118.14432    124.94294    120.36759    128.41192    123.46367    125.62610   
 84      122.32313    129.46903    120.03003    123.51424    122.33582    116.60171    123.72686    118.65161    117.51163    119.63519   
 85      118.63482    123.95213    118.03075    116.23926    117.22709    122.05784    126.93067    122.69762    122.43758    128.74363   
 86      116.28236    116.62773    125.36290    127.59963    121.62950    128.76424    130.15645    120.86130    117.93782    122.18304   
 87      124.73083    128.90461    122.01988    128.42383    118.86934    120.14675    127.02529    124.35744    123.91240    123.38346   
 88      127.75183    125.96723    128.29634    117.97744    123.15051    123.54855    122.93747    122.27404    117.56367    116.48716   
 89      131.21272    126.83258    125.67065    129.26962    122.55577    119.41872    122.02841    122.86771    126.19922    130.98472   
 90      123.95540    118.55715    127.93746    117.04726    128.61644    119.62984    123.40606    121.95379    119.29373    121.71519   
 91      130.54130    119.51295    127.94285    122.74229    124.15442    129.44831    123.64440    128.53620    123.40151    118.28926   
 92      134.80353    125.43837    125.09007    125.51952    132.24803    124.01659    126.21458    133.57979    130.55437    125.15829   
 93      128.58154    131.93069    119.90052    129.28885    128.71008    119.64391    126.09607    126.85612    124.15486    121.46136   
 94      127.14659    136.10330    126.09825    130.55212    134.05414    134.34941    122.46580    128.51193    125.43724    134.00270   
 95      134.69591    132.13146    123.86611    130.09078    123.61951    129.32951    124.46286    134.70634    135.63755    132.37578   
 96      128.25686    121.04449    131.23770    123.30049    130.29930    131.43530    134.09376    131.23824    124.74300    137.00847   
 97      133.12183    134.80625    126.08666    133.85489    126.83575    133.66428    129.26503    135.05470    134.47893    131.65451   
 98      131.24770    126.39051    129.15010    123.90785    129.56661    135.22455    137.99391    124.64288    126.14628    133.32518   
 99      137.27708    135.38939    133.64047    129.96728    132.03060    130.71525    132.67770    139.62785    133.72850    132.34151   
100      126.24090    134.49134    132.86939    135.70837    132.97187    126.95909    133.52908    128.86975    138.39282    128.65382   
101      128.69703    140.46641    134.24140    135.47093    140.23268    135.91222    138.67805    128.23296    136.73458    135.84033   
102      127.53972    133.52652    142.98355    137.12672    144.68143    141.88199    129.81854    136.37653    136.82426    141.96737   
103      141.65852    142.48552    141.89767    136.85458    141.12751    130.34683    144.88799    136.10008    141.83543    137.25503   
104      136.57788    135.34231    145.77649    129.24675    143.49317    144.24346    140.23696    143.49755    132.38856    147.79454   
105      148.53322    134.68486    140.73435    141.74753    137.59287    139.36915    140.62743    136.10456    139.71289    143.46318   
106      142.63419    144.42018    141.24211    148.45095    135.80257    146.83011    133.98178    136.64051    133.44204    151.33174   
107      139.61270    137.89446    140.82493    150.78036    146.06074    140.51924    133.31772    135.23387    149.07618    144.66353   
108      140.20296    153.42828    146.42266    147.34400    148.40310    154.41699    150.34978    142.72774    145.93902    149.58245   
109      153.16573    154.05292    142.04907    149.79985    141.15577    145.26874    155.29134    149.34913    153.36522    141.97555   
110      151.27198    156.53401    144.68757    153.00370    142.61202    157.35274    146.51565    148.92592    143.56803    143.31966   
111      145.68765    146.39484    159.75173    151.15925    153.26661    150.01764    148.48918    141.10820    141.64588    150.98209   
112      150.48004    152.98398    148.70347    153.55888    151.75840    153.37706    155.74112    146.12974    147.67102    143.23464   
113      147.55877    154.00428    154.75427    153.99514    148.06999    154.88861    165.16826    161.19692    157.92535    151.97431   
114      156.13459    158.32318    165.39295    158.67262    163.48393    163.22290    159.73646    157.20071    152.72775    156.37101   
115      167.94228    162.67277    153.85054    162.79792    155.19979    159.86221    152.18091    164.00909    158.25118    156.28731   
116      158.83373    156.96323    162.96548    161.60046    166.95886    172.32199    163.05977    162.83319    177.08542    153.50510   
117      168.49453    155.59383    165.35483    154.01102    169.22297    158.04515    165.16452    172.97393    166.21808    156.62028   
118      176.65975    156.48575    157.89518    164.50405    170.64369    169.46919    166.57757    169.26059    170.35812    174.50781   
119      176.02955    177.14575    174.01779    180.73361    179.76201    163.28722    167.43944    166.30449    168.44056    174.27131   
120      162.02523    180.81451    192.49678    187.46765    177.87539    171.28305    175.94246    170.90006    170.33806    178.56268   
121      177.45090    190.89730    178.55888    176.35432    180.60383    174.09689    188.54408    173.23439    176.96258    175.19715   
122      174.26118    182.13238    168.44443    181.77831    180.21176    180.96707    187.88518    184.71962    182.10060    187.45466   
123      181.38850    201.46509    177.21546    179.62652    192.68815    190.60059    178.96188    179.03159    182.92959    183.37760   
124      203.23670    190.91066    182.13743    197.13267    202.35210    193.02117    191.76957    194.22637    197.42370    177.26942   
125      205.37985    210.45311    192.98359    195.48096    200.16501    209.96350    206.76323    212.57333    203.19548    209.17371   
126      199.21541    214.42240    209.49697    197.21325    205.71052    197.40138    207.42769    198.37639    203.19691    202.61360   
127      205.40088    191.20732    222.71876    210.94332    226.85764    226.78016    197.31576    208.13918    194.76616    204.12026   
128      207.45601    206.57907    211.34825    207.98520    215.04660    214.38621    210.43029    224.75725    205.97370    220.93625   
129      221.26287    237.87929    222.81045    223.05241    214.56588    207.99882    219.15773    221.07341    205.05908    208.01123   
130      235.37336    216.35394    222.28913    234.01592    213.26457    222.05409    235.25648    211.94138    222.22728    233.23649   
131      226.43344    231.80127    243.28978    238.33680    248.68203    234.70711    229.57302    242.28272    224.00625    221.27168   
132      234.93667    255.08982    241.83374    234.78474    233.41606    240.31241    240.62601    232.37039    228.17847    253.39719   
133      230.44767    247.64900    236.26955    264.47005    233.05369    242.43708    243.71542    233.32440    229.59639    239.06405   
134      282.08669    257.74212    238.10441    247.37333    270.10831    241.34246    240.56483    251.13896    235.78931    257.13102   
135      244.18272    247.47202    250.42367    252.39303    268.26581    258.32611    258.40261    238.29193    265.79688    262.18763   
136      267.11079    257.70705    253.42800    275.19124    242.72894    280.76072    263.71322    265.51890    270.21214    283.64862   
137      294.44780    266.21437    250.51198    278.25536    259.62486    286.01980    259.41979    248.03165    255.72763    259.75922   
138      275.54650    269.50647    276.96279    277.01050    276.40797    293.38779    275.54511    277.41349    283.90118    259.28375   
139      284.56515    267.44714    270.98848    290.87528    277.13708    282.54859    264.08390    302.45121    291.50515    269.41452   
140      322.73450    291.60733    312.79742    318.08949    307.52374    266.29964    312.53071    302.32399    326.63379    317.37153   
141      304.46285    303.26233    327.06521    301.31760    294.39570    299.60978    319.71088    306.44434    320.13761    315.57803   
142      349.09770    307.67129    305.46571    337.39904    314.22689    309.17553    327.83431    314.65083    315.01733    320.33640   
143      345.73542    319.05119    310.59016    312.74306    325.97626    345.78642    315.79415    325.50702    324.34549    317.35792   
144      344.42568    343.42714    359.86176    346.45299    346.99520    342.24629    329.02626    334.74852    328.41864    374.02238   
145      356.14339    332.81977    357.30550    364.15109    347.39329    338.80494    339.66301    356.49169    368.85707    328.90737   
146      388.58756    352.09160    333.82243    355.69995    376.48959    373.07310    352.73475    340.24830    340.80086    365.08968   
147      401.32634    405.74181    391.22285    352.97046    363.53300    366.36415    361.53047    381.23254    359.41212    354.82991   
148      395.71926    381.13389    374.60380    394.62194    379.86394    343.95702    409.66247    394.25909    398.29894    390.60896   
149      395.23505    415.54552    399.31303    385.42924    381.21120    411.81568    383.81792    407.26870    424.58203    400.06810   
150      388.74440    416.54972    417.38514    415.06155    428.59873    439.12960    402.01402    436.78757    403.06848    401.05774   
151      440.21885    420.05930    408.27286    408.97088    407.32060    451.43140    415.60042    435.21255    444.16686    456.51373   
152      457.20978    475.25203    477.69374    410.40153    440.26554    450.30833    451.75973    460.67810    398.97780    455.26256   
153      462.59377    454.90263    452.85792    475.70555    481.88111    430.92476    439.13275    486.60232    484.79653    461.10828   
154      491.28761    469.37756    512.80782    495.53408    439.27256    465.90871    465.69636    451.38323    471.84227    433.04922   
155      536.25663    492.40706    478.42395    470.26277    507.67548    525.82841    459.88196    460.91013    513.78001    515.95537   
156      532.60295    482.36279    525.27654    495.93367    491.99229    536.15719    516.63521    513.21793    505.39433    507.81171   
157      538.35503    490.34116    480.33668    555.40052    530.48468    548.77216    513.44905    531.90191    534.13844    523.23949   
158      589.42559    499.59710    517.20905    517.19084    514.72269    532.25947    578.73715    548.93108    522.03138    543.17708   
159      539.15885    549.52237    585.52527    540.80954    614.39722    620.65531    599.66608    562.12455    598.07004    604.18320   
160      609.13213    585.07014    617.77988    627.92452    542.08795    646.08238    613.61257    557.55050    542.86942    548.16449   
161      587.56863    659.21392    594.24668    625.71193    585.93728    581.05957    613.05088    589.12105    592.61244    592.34327   
162      678.48732    651.48901    682.58855    626.34747    571.33517    640.92635    598.48039    569.53697    659.77003    581.42146   
163      643.67792    634.85650    605.03197    609.11569    663.68643    694.54842    687.30388    633.94445    687.94009    688.47029   
164      632.86948    681.95308    650.81730    631.58188    615.90618    677.11652    688.99094    688.19438    691.08787    731.64233   
165      659.53277    680.47517    726.10006    709.57692    670.59156    683.64227    652.14015    675.14969    675.19477    687.79742   
166      738.75162    746.48310    745.91917    740.25801    697.96213    659.41425    678.27473    778.55620    719.20048    710.64674   
167      750.07657    691.89812    758.44429    808.07438    776.80131    730.26389    717.20525    735.81992    686.01201    773.96438   
168      792.08016    771.70829    738.85454    785.89447    728.63787    780.06669    722.59744    758.78932    743.37251    726.26451   
169      766.71163    811.06869    850.18183    810.84132    795.88708    823.02463    743.64071    771.01851    812.12612    779.62122   
170      773.34901    806.83255    831.65647    863.05190    781.14960    790.88320    836.22333    861.98470    796.94689    816.29655   
171      806.71590    873.79448    881.92387    900.01235    799.78753    898.11986    850.67436    843.71193    802.21098    845.90024   
172      814.08846    882.55112    881.60153    912.97872    855.04252    839.66222    934.67224    854.77836    894.57905    863.60767   
173      867.78200    854.80698    892.58296    877.82459    863.23162    916.49409    930.52555    853.35602    883.91152    920.80963   
174      980.80012    946.24719    968.82699   1002.84356    895.14808    965.05578    893.94862    950.38630    954.95794    923.07088   
175      991.63318    981.30114    929.90080    998.20780    931.03553    917.17459   1019.55729    974.26745    969.11524   1029.37751   
176      955.09419    988.46469   1056.07487    947.69267    972.47001    992.52584   1047.96523    973.76826    972.09480    950.89140   
177     1065.56153   1108.90256   1105.69522   1096.98531   1038.11979    978.08944   1071.78892   1015.72828   1022.44945   1081.26663   
178     1018.80314   1064.02988   1098.78017   1084.62912   1044.75939   1096.93433   1015.21556   1087.65503    997.56457    996.24944   
179     1066.18363   1147.31271   1006.04784   1104.26862   1098.97032   1075.15061   1082.81571   1170.92137   1114.13814   1165.31978   
180     1149.47966   1094.35908   1077.17325   1175.62835   1136.84398   1153.28331   1090.68554   1171.86655   1065.28618   1136.11959   
181     1195.79424   1153.07714   1216.70309   1210.41385   1157.32723   1163.21072   1240.21246   1221.11707   1176.53603   1101.93982   
182     1187.75614   1176.58374   1146.28107   1207.54892   1203.24581   1231.26984   1135.47966   1190.26926   1189.13059   1216.44396   
183     1287.46385   1219.22926   1191.78747   1332.20394   1182.56501   1250.61210   1224.23270   1260.40672   1150.43841   1156.30907   
184     1385.64134   1308.95649   1341.48723   1227.83262   1302.12579   1245.11238   1264.44033   1326.10776   1318.42158   1343.23272   
185     1344.58511   1304.65234   1366.24939   1307.75649   1369.34418   1285.15795   1329.05382   1292.32208   1365.73640   1334.49891   
186     1431.51300   1459.89313   1374.75358   1355.49097   1396.37912   1337.13557   1333.98259   1311.46825   1412.24607   1346.01055   
187     1329.54392   1313.98212   1371.21934   1331.07611   1481.51443   1328.42386   1426.91161   1412.90980   1325.76589   1362.94425   
188     1436.10220   1407.94619   1382.62391   1358.23038   1390.60879   1374.37839   1407.68535   1433.83558   1471.63174   1390.78874   
189     1435.74204   1457.12161   1469.41414   1588.86622   1595.83549   1389.20193   1519.10636   1518.87303   1431.30613   1460.28181   
190     1398.78102   1512.14187   1566.23360   1562.25668   1462.79818   1518.62722   1578.65793   1461.79459   1505.58830   1661.21824   
191     1441.67918   1552.33279   1640.07846   1593.34521   1544.42627   1538.37586   1550.51870   1576.19464   1512.87921   1670.96413   
192     1631.47535   1685.26516   1580.55739   1637.51280   1616.20640   1679.57939   1663.98177   1596.88959   1632.50147   1523.04780   
193     1639.76067   1641.07668   1689.48234   1567.32047   1663.36504   1603.98650   1574.87519   1576.49356   1683.62435   1586.00427   
194     1704.17694   1721.56039   1675.41872   1648.44023   1670.35074   1792.05586   1728.39390   1720.72372   1747.65273   1619.52309   
195     1755.39154   1822.90024   1771.62553   1765.56007   1678.25487   1746.64247   1701.80840   1762.82740   1732.62912   1799.50079   
196     1812.85401   1675.09890   1844.18454   1825.42862   1780.22270   1677.65301   1825.74979   1798.17657   1786.43309   1827.66705   
197     1834.22218   1789.91545   1833.67659   1936.38870   1810.61936   1829.98333   1854.54585   1701.64606   1928.94321   1788.28547   
198     1933.18592   1883.33679   1892.73649   1950.76439   1969.24962   1904.19328   1826.54967   1930.70716   1866.59371   1859.00623   
199     1915.25845   1941.44921   1857.10076   1919.12471   1880.32338   1948.35612   1901.18271   1850.67900   1912.65936   2008.02312   
200     1900.52210   2002.85609   1902.51498   1914.72230   1915.41727   2051.36206   2035.65156   1995.76265   2032.81912   1887.91394   
201     2059.35862   1918.69078   2133.75257   2138.68986   1957.23534   1930.95182   2167.44660   2043.28658   1969.77415   2011.27124   
202     2010.21963   2015.80981   1965.75436   1949.77072   2042.17725   2025.50222   1971.09688   1987.22281   2057.91446   2015.47427   
203     2119.97510   2045.90265   2193.67047   2024.82765   2033.95455   2137.13589   2174.75985   2199.91934   2205.49969   2114.65050   
204     2154.25110   2153.60168   2075.99898   2157.35656   2148.64730   2174.49874   2071.60447   2250.06495   2241.70054   2119.80204   
205     2237.14198   2264.81060   2225.80334   2221.90495   2232.87630   2152.03868   2262.28753   2190.08272   2236.63942   2220.77168   
206     2218.12205   2287.30082   2365.11127   2294.62611   2273.57454   2332.55535   2290.72234   2194.85279   2332.10849   2268.21343   
207     2324.63814   2454.69918   2246.19460   2394.56174   2276.35704   2203.30735   2398.30056   2393.40065   2452.30296   2231.88846   
208     2343.29975   2392.29184   2421.46690   2420.96996   2290.20079   2418.89963   2386.81135   2424.52381   2385.75364   2435.95139   
209     2388.68911   2457.23064   2398.87750   2383.99975   2349.28523   2441.77894   2526.83513   2450.32600   2469.18134   2406.60216   
210     2473.81161   2388.44408   2467.87624   2409.74910   2491.58767   2433.83627   2490.14385   2399.07601   2410.44911   2451.31859   
211     2527.53090   2662.99751   2473.79108   2492.55718   2365.38472   2464.15948   2583.43852   2665.69708   2663.48611   2592.04859   
212     2543.52084   2613.55421   2506.47324   2509.08289   2516.36899   2584.94324   2553.73057   2630.57096   2626.78112   2624.77736   
213     2639.08416   2614.45094   2625.81880   2508.47383   2525.64392   2707.85925   2648.21073   2566.95733   2618.00532   2640.66731   
214     2609.63902   2639.51525   2657.40565   2705.32950   2557.77339   2701.36754   2644.29566   2654.94919   2657.16762   2552.33556   
215     2733.77402   2772.65642   2652.49638   2844.18598   2695.75320   2746.83304   2692.74052   2636.26362   2702.26903   2648.40432   
216     2744.99215   2855.29447   2709.32365   2838.68931   2736.49556   2790.94346   2896.75828   2790.90426   2643.79121   2797.92438   
217     2781.34409   2817.02731   2679.34777   2936.03810   2891.30689   2833.92400   2755.52299   2837.57066   2855.17427   2856.90636   
218     2921.89176   2740.26843   2880.99047   2957.23581   2902.45754   2861.79643   2815.50899   2849.82766   2830.46686   2933.95774   
219     2989.09300   2869.53916   2905.55682   2934.86859   2963.92346   2765.88332   2989.93588   2866.33792   2928.60063   2763.55027   
220     2897.58466   2960.88652   2963.50222   2961.54851   2858.32138   2924.71507   2913.13570   2981.93188   2865.70761   2970.31949   
221     3043.13744   2891.53340   2965.94572   3157.31346   2986.55108   2930.61022   3097.30640   3044.94838   2994.66617   3092.59683   
222     3041.25669   3000.61557   3169.20737   3116.45496   3046.40029   3050.20645   3024.55407   3053.07774   2935.48773   3102.74802   
223     3103.92348   3067.72617   3091.07377   3250.10012   3076.40596   3086.65314   2996.63697   3167.16779   3054.88692   3097.35584   
224     3133.18447   3189.09490   3081.37915   3130.51493   3004.92123   3125.23423   3116.54877   3171.30523   3245.28552   3081.38320   
225     3219.06627   3305.33880   3149.85233   3252.35262   3192.71288   3265.95918   3245.69190   3186.18227   3220.09259   3147.54505   
226     3139.48917   3158.01131   3385.86475   3252.18336   3275.08039   3312.19905   3211.39361   3279.62236   3307.55619   3161.28202   
227     3238.84496   3292.81578   3195.53573   3224.80877   3326.31594   3194.59683   3318.69042   3185.50754   3373.13487   3327.96900   
228     3276.47765   3251.39029   3193.51249   3240.64988   3363.19649   3253.24041   3351.23544   3345.75112   3230.79930   3340.11268   
229     3312.16119   3401.14215   3340.14978   3462.74342   3293.54184   3340.68693   3353.11664   3227.45997   3407.43827   3315.15970   
230     3382.94981   3349.35479   3383.49342   3335.82816   3284.25970   3398.14694   3351.55174   3405.34745   3482.34644   3428.41675   
231     3319.75282   3525.63913   3443.19172   3458.31551   3433.02316   3337.37642   3594.53299   3472.70239   3416.79255   3428.27176   
232     3499.29304   3522.96581   3538.64743   3563.32476   3355.96864   3486.34024   3559.08975   3395.69389   3342.61090   3432.94525   
233     3571.83831   3475.99983   3483.68616   3476.73087   3433.38614   3578.43402   3461.85680   3354.23125   3488.71870   3431.43360   
234     3604.02164   3655.48727   3465.65948   3610.26915   3619.51863   3602.11575   3477.33399   3468.23757   3506.59273   3457.71306   
235     3563.61225   3573.60227   3647.91921   3627.86327   3557.01001   3613.86543   3447.11547   3568.77523   3636.19982   3581.08509   
236     3629.57160   3625.16157   3565.64906   3571.80890   3627.67136   3657.38804   3542.67443   3586.52450   3634.43459   3601.50050   
237     3667.99469   3775.60336   3765.69066   3625.34601   3613.17820   3640.70476   3643.04470   3623.27575   3733.01713   3764.75284   
238     3647.30099   3649.87933   3692.02404   3582.91754   3677.22276   3639.28790   3756.28619   3737.81854   3765.70474   3681.24406   
239     3698.32884   3757.96613   3734.39860   3657.97406   3716.29346   3644.58359   3694.99048   3659.13041   3758.44765   3794.99335   
240     3663.48436   3877.07671   3820.32480   3828.49102   3618.85767   3823.13432   3766.43330   3680.14160   3782.59172   3769.20668   
241     3728.13576   3743.70305   3733.69948   3802.57532   3815.49997   3775.45015   3685.95297   3732.26893   3687.03739   3658.29554   
242     3782.29522   3757.75082   3919.86910   3750.55257   3780.50446   3900.94414   3872.29954   3758.03775   3870.84786   3739.22680   
243     3874.09959   3713.85056   3775.71857   3893.72904   3821.93824   3911.36867   3737.46466   3740.89521   3849.32604   3805.70659   
244     3846.76936   3806.18656   3752.29671   3868.43679   3818.94241   3917.84818   3844.17253   3891.28539   3779.07961   3772.35416   
245     3919.19913   3832.29583   3844.02646   3975.82235   3825.67216   3841.83942   3912.64970   3895.79105   3995.90044   3908.72275   
246     3942.67785   3946.39024   3818.27587   3913.45615   3913.94271   3992.39356   3914.20179   3933.44065   3992.13446   3918.13360   
247     3929.41500   3969.60638   3996.32898   3962.38384   3901.78245   3986.75457   3987.97414   3804.18288   3915.07146   3860.84911   
248     3968.24167   3883.27651   3843.68841   3868.87559   3833.67827   3983.32153   3980.66751   3890.35700   4003.79273   3933.96840   
249     3854.31759   3973.92633   4048.54037   3996.44414   3920.72665   3923.55026   4027.28791   3869.74785   4002.27901   3882.90359   
250     3875.09979   3874.42364   4022.83950   3859.56377   3969.48725   3967.88979   4070.41255   3881.60268   3991.31457   3988.70678   
251     4029.08053   3977.19488   3984.55236   3915.50115   4006.00207   3920.30253   3886.47782   3962.96459   3918.32651   4008.65301   
252     4057.96595   3881.70328   3929.97363   3986.31284   3961.53397   4077.86368   3922.20624   3895.39497   3941.45271   3922.25206   
253     4054.59870   3947.77627   4046.55747   3935.11700   3898.62488   3974.26165   3965.94349   4034.30161   4022.72536   4067.21475   
254     4021.20921   4011.01746   4080.37066   4021.61218   4094.16243   4072.78826   3959.38312   4036.25077   4028.66064   4085.30841   
255     4088.15301   3938.89350   3992.28147   3907.64713   4067.61965   4005.91514   4017.42087   3979.96796   3966.00331   3944.49639   
256     4053.55686   4091.19370   3966.19306   4113.13901   4007.42707   4023.12363   4091.75599   3932.28644   4012.53512   4014.89297   
257     3956.06223   3984.92964   3916.70593   3949.10649   4031.11162   4041.40744   4067.15896   4015.57135   4071.42315   3924.84828   
258     3934.93684   3919.07158   3943.28067   4025.39731   4084.48617   4083.97215   4112.23716   4078.27593   4022.65192   3981.90543   
259     4076.27564   4014.69641   3929.48471   3960.43699   4061.35393   4064.49060   3927.99614   3931.34132   4055.41802   4115.88387   
260     4036.02204   4047.06093   3919.41404   4061.96845   3945.74363   3992.98178   4026.66484   4067.35776   4042.15870   3965.46001   
261     4075.57395   3960.26377   3925.58194   4016.64252   3966.16861   3901.80588   3975.09923   3986.48215   4091.30521   4057.40109   
262     3900.46838   4094.31001   4060.73699   3965.29195   4012.98818   4047.78361   4024.70840   4066.61167   3941.97835   3977.52278   
263     3984.49528   4021.43354   3941.48735   3974.95788   4004.92436   4033.11584   3940.04423   3904.91386   3898.36220   4076.04140   
264     4074.30101   3984.52924   4027.05965   4094.76583   3936.06514   4021.62950   4020.34902   4027.47455   3936.43504   4085.79573   
265     4033.98891   3973.79563   4032.62553   4024.13486   3895.87008   3990.87218   3937.41487   3934.85402   4011.81263   3922.19074   
266     3997.08085   4055.69106   3850.69007   3950.83288   3910.68085   3971.47214   3868.06129   3883.28831   3996.69802   3876.94475   
267     4007.74789   4046.00185   3999.43454   3982.47896   3853.20231   3981.43913   4052.72161   3975.42517   4003.97853   3960.43977   
268     3985.42168   3843.16974   4015.26797   3905.11511   4005.92145   3910.15124   3987.54261   3942.78608   3852.70232   3950.39279   
269     3990.82382   4011.28624   3935.73973   3980.70706   4026.86445   3881.53015   3923.73758   3908.06687   3887.16739   3981.60672   
270     3911.39781   3878.30013   3959.12810   3947.92844   3845.00125   3920.62050   3919.56967   3931.06294   3932.80586   3815.45280   
271     3876.31232   3939.77476   3911.60149   3878.13651   3867.59139   3783.21450   3804.25989   3841.16993   3873.22562   3938.63113   
272     3833.88735   3808.33949   3798.93298   3846.43339   3726.96380   3759.80228   3934.10083   3865.05231   3769.49284   3858.64056   
273     3782.38790   3800.59100   3749.54297   3809.98150   3794.06279   3754.75130   3733.34775   3857.56170   3821.22231   3753.52186   
274     3851.20880   3769.52302   3878.03953   3778.55313   3929.25913   3748.43662   3851.78074   3693.15146   3727.06091   3871.12928   
275     3885.22804   3646.96618   3781.75584   3815.49579   3743.49715   3728.32324   3800.92823   3720.62063   3857.35958   3848.06414   
276     3681.06870   3653.72622   3847.97388   3667.40342   3598.67754   3817.57073   3645.15167   3778.59494   3619.32058   3790.24423   
277     3759.19154   3774.39831   3649.27514   3753.33663   3785.77252   3810.20121   3628.31003   3822.77299   3723.31494   3675.94542   
278     3659.45435   3743.53799   3623.58911   3588.86692   3664.56084   3573.39614   3707.98405   3675.51985   3652.77350   3764.83960   
279     3624.83881   3581.29808   3668.53276   3571.98519   3581.90046   3689.06108   3669.53784   3731.51664   3655.11132   3641.52056   
280     3641.59334   3727.35969   3723.52588   3500.20551   3517.54631   3604.76732   3515.49872   3749.72629   3525.41080   3572.77720   
281     3496.68209   3546.05520   3653.39639   3594.82651   3491.31175   3675.87861   3588.36949   3579.36165   3659.02275   3551.68481   
282     3612.62278   3642.73466   3565.83410   3568.85131   3556.11458   3635.20635   3541.28383   3571.48653   3464.36469   3461.08189   
283     3572.93543   3491.20916   3455.22916   3601.32193   3527.97113   3600.11373   3445.00275   3666.46245   3460.03567   3582.97170   
284     3324.89324   3435.91691   3407.75167   3495.02982   3487.74213   3444.87668   3515.27547   3490.68061   3609.49835   3516.08644   
285     3456.12842   3371.23183   3442.60407   3487.71351   3467.07215   3580.59002   3321.52389   3483.16158   3529.36160   3374.22470   
286     3452.39892   3363.72407   3393.43938   3309.95681   3411.49762   3398.98589   3377.59213   3526.80516   3433.38326   3330.18874   
287     3303.40165   3465.17028   3419.52386   3401.01848   3351.29077   3425.20644   3460.13187   3386.74700   3457.97118   3357.79655   
288     3324.88462   3298.24222   3212.54293   3301.82824   3271.69771   3279.18955   3320.57150   3364.31782   3350.93153   3381.52526   
289     3289.03025   3270.72506   3259.98629   3317.15856   3425.56525   3261.89325   3423.40941   3301.77480   3221.30810   3243.20966   
290     3302.87345   3195.16600   3280.76888   3096.83171   3287.68265   3267.98531   3127.57974   3237.44130   3109.87809   3254.25639   
291     3198.02454   3119.89336   3089.00799   3244.70408   3227.59866   3162.20321   3218.65376   3127.70477   3112.85641   3154.80082   
292     3029.60067   3198.39727   3214.39057   3103.13099   3053.57919   3196.73069   3202.35703   3220.76671   3216.35600   3097.37975   
293     3112.37964   3160.72449   3128.58534   3196.32370   2962.47356   3002.74920   3133.77380   3037.91436   2998.08403   3255.12792   
294     3061.05229   3170.41419   3065.36209   3074.04937   3162.11976   3172.31333   3003.46450   2954.03847   3013.91125   3195.03892   
295     3045.44592   3038.08767   3042.66676   3059.82024   3067.02966   3017.39994   2897.80758   2964.65106   3110.62174   3013.57336   
296     2856.62726   2923.21024   2904.97921   3001.63771   2945.76509   2914.32191   2895.35115   2908.93936   2803.48819   2951.68724   
297     2963.32586   2953.48363   2854.00803   2986.97825   3002.91910   2963.62034   2873.36082   3004.68441   2829.43350   2883.37602   
298     2862.85719   2793.24597   2983.59200   2859.03564   2746.45881   2767.35520   2823.38322   2769.78931   2930.37732   2731.19625   
299     2800.81861   2814.20482   2737.00154   2927.76289   2790.11437   2777.78391   2715.14222   2940.95731   2820.11764   2786.57911   
300     2712.55850   2731.89473   2723.67424   2733.87919   2663.52554   2840.94169   2738.10041   2790.55453   2645.83649   2821.58241   
301     2672.58839   2746.65601   2624.35299   2639.11888   2731.05002   2724.45217   2756.23610   2798.55998   2647.62225   2706.84427   
302     2681.45246   2639.85694   2753.34347   2563.66338   2636.26211   2554.08508   2709.03825   2790.33804   2801.91499   2761.12781   
303     2683.33667   2596.92654   2634.09292   2480.70480   2637.07457   2565.83173   2629.28888   2635.24996   2601.71461   2685.77093   
304     2558.83228   2536.04525   2488.99393   2572.43278   2700.44085   2661.77535   2497.09173   2483.47073   2478.46208   2615.45393   
305     2536.12141   2487.98633   2560.46332   2543.82822   2475.71428   2474.99590   2442.88105   2493.19461   2564.65522   2505.19568   
306     2559.81431   2361.67994   2473.13374   2584.71428   2416.32810   2538.15168   2552.49373   2490.02361   2367.10928   2447.11556   
307     2335.84235   2382.88068   2355.23385   2522.89894   2475.69965   2444.72459   2378.14479   2342.84862   2325.21049   2466.85814   
308     2232.19095   2379.85142   2451.78500   2364.95619   2403.49480   2378.00410   2362.22072   2397.17306   2438.54773   2337.90352   
309     2373.23147   2324.90043   2384.68005   2283.67575   2443.47360   2381.30425   2295.86820   2354.15902   2288.58740   2281.34610   
310     2183.64836   2431.39913   2208.24465   2181.22842   2264.27988   2368.70804   2286.02505   2293.91953   2294.50558   2197.85561   
311     2168.24600   2250.36870   2193.95990   2365.43215   2200.96936   2129.82293   2355.00767   2172.87684   2236.16290   2125.76953   
312     2159.66259   2222.83725   2032.85053   2082.13586   2189.61402   2189.83881   2275.34438   2167.94138   2237.06826   2125.86122   
313     2154.18171   2189.86024   2243.18489   2045.65689   2150.34144   2068.53808   2131.04130   2151.33017   2057.99567   2080.35868   
314     2087.62803   2053.36974   2102.51452   2172.10586   1979.24638   2013.70692   2006.97563   2095.64107   2085.56525   2033.87781   
315     1994.71512   2149.57554   2075.47892   2033.14698   2057.54253   1991.10038   2020.38570   2046.11874   2083.61222   2016.03946   
316     1956.38997   2011.54441   1847.00680   2000.80301   1932.77757   2093.04340   2016.55934   2016.11472   2008.85127   1885.56019   
317     2014.38055   1992.68021   1885.03812   1874.51214   1938.50372   1940.01803   1938.48476   1913.77426   2045.61525   2068.00646   
318     1826.01719   1817.54443   1931.90477   1885.99665   1823.47108   1899.50153   1919.09707   1901.83696   1990.35855   1773.31568   
319     1818.35464   1852.58470   1740.52453   1725.99838   1895.35598   1786.60368   1841.22347   1883.69346   1818.70512   1823.51695   
320     1831.94985   1736.45380   1821.29840   1880.46048   1709.03165   1775.96752   1717.51443   1742.62786   1740.53611   1765.85962   
321     1692.70727   1754.79156   1739.51525   1685.49917   1718.00363   1678.17808   1805.63357   1727.54412   1864.15533   1821.65566   
322     1617.46984   1756.57978   1754.36090   1704.97850   1711.90289   1730.10791   1697.12674   1641.35351   1792.80452   1647.06126   
323     1731.61689   1689.52927   1731.27770   1622.51120   1745.78983   1648.03388   1704.08676   1706.53161   1723.57844   1687.59078   
324     1569.03610   1623.14758   1627.83875   1612.59228   1573.42911   1616.96233   1591.14116   1578.80917   1638.03880   1562.73911   
325     1504.61072   1525.95715   1498.39946   1528.65757   1568.76488   1597.97017   1524.04404   1553.35667   1490.25790   1570.41360   
326     1433.14950   1621.49199   1427.48273   1517.59210   1496.86883   1538.95942   1597.90854   1494.14623   1477.79049   1585.21134   
327     1456.10608   1428.35188   1544.62211   1400.61914   1558.98929   1417.63837   1508.93080   1437.74580   1462.92387   1499.90029   
328     1407.73489   1522.29344   1434.22247   1463.65205   1411.57452   1514.86664   1503.82439   1411.36018   1387.41944   1500.37583   
329     1434.77911   1418.85759   1453.74557   1375.26674   1427.42881   1342.71858   1433.96892   1458.77989   1330.29021   1410.90615   
330     1303.96651   1252.36772   1372.50745   1380.66989   1309.28882   1308.67363   1313.24912   1437.49420   1357.74915   1312.99852   
331     1390.68578   1374.22063   1321.61086   1359.11408   1258.71774   1233.27841   1420.02932   1355.24756   1261.11547   1325.76671   
332     1203.34317   1292.10119   1360.60429   1344.92736   1253.23280   1298.53497   1209.35904   1340.20314   1195.55018   1280.75651   
333     1288.78537   1205.78406   1296.91718   1229.11511   1244.39752   1177.59678   1164.42027   1188.00474   1321.24247   1194.91581   
334     1228.04353   1230.55710   1235.33567   1117.55102   1276.01632   1123.68896   1195.31890   1217.29951   1209.98486   1144.55208   
335     1144.48841   1199.11178   1234.34841   1155.22035   1173.28683   1259.04782   1124.24629   1192.34479   1168.22193   1221.31271   
336     1101.38411   1198.82206   1051.06611   1150.78767   1220.30915   1087.25883   1047.72574   1100.82967   1179.73764   1073.88740   
337     1101.38537   1126.64023   1127.32394   1130.47029   1062.98463   1143.30463   1075.53032   1034.75640   1103.58334   1110.97999   
338     1075.72556   1058.18935   1057.21649   1144.69549   1084.09083   1100.32033   1014.46713   1116.25745   1071.28806   1018.92374   
339     1019.03824    992.91710   1039.32348    985.28145    970.91089   1057.87009    984.11175   1018.60211    999.29137   1068.46508   
340      992.15538    921.36031    944.61708    997.64422   1027.73918    983.21645    943.82455   1054.74180   1035.24089   1059.28447   
341     1002.51687   1020.16063    948.39449    966.11111   1007.02026   1012.06218   1011.14602    957.10289    969.11039    954.19676   
342      943.12968    904.95280    982.07963    929.09625    876.05564    987.27436    911.12625    965.84321    941.19792    994.03520   
343      915.54002    896.61401    877.10255    930.86245    956.41885    879.07888    938.27501    969.18756    888.30801    906.39050   
344      860.40063    890.27533    940.37921    862.88976    932.26701    927.86450    934.03562    855.47303    961.29742    859.12236   
345      869.09525    833.32445    790.49324    859.72112    809.52038    849.99085    890.82462    868.05785    919.31689    915.71836   
346      767.99758    769.31257    816.76566    804.51743    818.77039    822.08011    748.56137    788.30161    820.98021    887.46887   
347      776.96780    739.15106    821.93662    804.22157    812.10693    800.90258    819.33293    772.87013    798.46741    759.28974   
348      809.11092    795.76181    770.25576    751.37749    813.86093    778.54142    734.83447    768.53425    828.13679    776.54755   
349      757.44413    733.88454    706.24505    693.04492    724.62705    715.48336    731.00932    765.67672    785.68265    741.63227   
350      672.70940    722.36144    703.38154    748.88311    717.77581    664.31288    735.51602    685.10697    682.27465    738.78215   
351      743.63388    681.02946    689.19278    681.58305    710.52975    723.99960    711.71232    682.92813    726.12250    708.83661   
352      686.98863    663.46184    674.21220    666.47754    661.24095    631.67794    665.38712    711.83602    666.48374    591.40701   
353      651.30702    614.92244    604.41095    670.28897    638.24891    611.61553    627.36175    605.51528    674.42658    697.53944   
354      645.80066    638.70220    681.80196    635.79648    653.20108    581.70001    626.97924    677.43854    611.89666    661.21135   
355      593.10879    558.04308    601.26419    618.83078    560.79793    582.04710    594.70729    603.94203    569.16881    613.32601   
356      550.48946    573.53156    637.04653    638.46646    589.59288    568.52483    568.19476    608.08165    595.80025    585.00115   
357      557.91165    513.26476    573.16059    553.72862    591.54473    540.04124    583.25904    545.49910    587.86734    578.66869   
358      563.07597    580.04883    518.74702    588.48531    603.97319    542.12924    604.53694    565.04423    509.48106    567.80880   
359      572.65283    517.99785    481.09786    533.96486    504.20059    508.75866    538.93765    519.23256    526.38719    525.10428   
360      495.29117    564.77543    475.35816    499.69803    490.77551    535.51855    500.52281    548.94479    497.99097    493.29218   
361      516.83664    541.85661    487.32484    478.16772    518.03486    473.80360    510.07282    505.91034    475.91580    490.11815   
362      459.12164    496.58324    464.41720    491.37343    467.50981    470.84032    475.17978    458.01417    458.97343    469.71014   
363      436.17338    503.74997    420.21001    476.24600    486.20650    463.43593    465.20028    483.89229    429.07933    426.02089   
364      463.00492    423.09966    465.45800    452.42250    448.44481    444.15628    478.87755    421.24199    444.29813    459.32064   
365      444.89434    420.07387    386.88824    410.48275    432.70999    446.42370    451.38168    411.00565    398.34618    451.72024   
366      421.43705    458.75411    417.92279    411.95352    437.59870    392.28399    415.36717    405.75450    417.34181    408.00641   
367      368.26897    419.99984    442.66353    367.23517    371.67924    414.29945    416.59217    426.13480    370.34398    404.08464   
368      349.80798    406.08679    389.21656    392.25075    382.77558    367.37945    380.66253    396.93426    373.98167    412.14478   
369      373.03164    399.07468    369.61752    345.88628    393.77253    399.05850    365.79919    385.84515    378.59333    359.96799   
370      366.08221    344.28313    371.04182    357.66294    340.67701    340.20294    403.18567    339.53697    346.21107    349.11895   
371      359.38927    372.08831    347.14809    330.37046    318.66359    345.43305    358.16380    363.04391    366.82178    327.73621   
372      340.17988    358.69399    323.19424    332.66503    354.51671    339.32268    338.75481    336.60111    335.84076    356.67007   
373      308.84873    318.97184    327.78385    300.81181    329.76875    330.78650    301.61341    337.79921    316.54772    337.77816   
374      289.37731    334.88136    310.55351    340.94011    300.20543    310.69424    329.14320    317.91287    322.76757    319.19923   
375      311.62151    307.81527    325.19400    300.30708    316.48092    310.63766    305.86057    310.81658    299.59915    319.60436   
376      310.46338    301.77517    292.19401    297.26235    325.41745    282.54705    296.24906    283.20935    310.08394    317.71688   
377      305.22138    289.35974    299.10121    286.50219    273.74417    262.15414    286.27562    301.83142    287.13847    299.09977   
378      270.93636    285.88334    264.08183    299.49128    258.10680    286.59292    273.38917    291.06261    303.85659    299.19902   
379      268.96154    284.49184    258.25190    259.61301    268.05301    264.90644    277.56455    278.71972    275.16583    292.95380   
380      245.82854    257.19700    272.28782    263.59863    270.93479    270.96758    274.08083    259.66950    247.99124    281.65073   
381      256.12780    262.84469    271.63364    262.12244    248.68964    264.85030    256.81707    248.04547    263.01488    249.96447   
382      242.61370    225.94345    241.40078    254.15185    266.22944    250.87991    245.33910    259.15044    233.59113    265.71493   
383      249.80124    220.82244    235.94010    254.09572    251.11345    250.72675    242.14133    232.24182    222.31977    263.85153   
384      244.95906    241.14538    233.15644    230.53069    245.24837    226.52680    227.20812    221.48412    230.34754    245.81481   
385      225.75358    240.11257    226.94353    226.71109    220.29556    239.83443    215.97810    215.62185    213.50631    223.38844   
386      216.45156    210.17945    220.50184    232.74360    213.95277    212.51277    226.64156    215.10386    238.22673    218.45649   
387      215.50318    222.73167    213.25070    230.96202    215.05822    215.82878    212.67918    222.39950    217.02253    196.55575   
388      218.86256    211.28410    209.07942    202.12413    211.43299    217.70327    213.18274    216.36282    208.99783    216.57595   
389      206.33051    187.55013    201.55761    190.16172    199.72824    198.46525    209.37731    209.94950    202.19155    201.14612   
390      178.43892    193.66776    194.39594    190.84033    194.96080    202.12634    191.94512    203.83951    209.03503    194.24021   
391      191.72232    192.28854    192.11005    202.20760    204.83007    203.21184    195.07158    196.81777    201.76484    193.37683   
392      188.86712    184.26219    187.70751    186.35743    187.36047    190.79389    197.72554    185.32723    183.22837    185.93641   
393      203.55465    182.38279    185.62168    178.90415    195.95283    185.41613    176.72431    194.09664    184.00024    178.02590   
394      182.95111    191.17127    176.79191    174.30523    179.73380    174.59487    179.75167    175.61443    178.67360    191.99884   
395      174.29727    195.50793    186.70047    174.89580    190.41218    175.57085    163.02583    171.49302    199.94863    184.29825   
396      180.92550    178.00969    193.90177    164.49352    179.00639    185.39945    172.21929    187.43756    166.11936    170.65094   
397      170.68081    169.72438    182.29051    170.63492    181.30291    180.30510    178.20197    171.38694    165.87577    173.02323   
398      171.64504    168.89619    162.64294    160.16475    164.43612    176.45836    158.48208    159.22964    180.87983    172.08898   
399      164.88944    168.40378    172.77717    162.60147    166.80291    166.52456    159.40440    167.67907    171.37236    164.42236   
400      164.34049    168.85978    164.39512    165.31831    157.38663    176.69393    159.24431    166.23881    160.30311    154.18153   
401      161.70755    164.69959    163.76845    169.73651    164.27272    171.53728    162.41328    164.77887    162.34762    157.89828   
402      151.12986    164.56663    159.01358    161.51687    170.65329    169.61225    160.78083    168.93109    147.39252    158.12537   
403      156.96463    166.39927    150.85822    163.43582    154.58383    165.31744    143.09490    148.54998    148.78715    163.84912   
404      160.63679    158.79194    142.57550    161.75792    147.97862    148.23735    150.42057    157.58273    150.00117    153.80189   
405      145.32513    149.88755    153.73974    153.67652    142.81817    151.69507    147.84667    145.27765    154.62590    142.71825   
406      148.29364    152.30669    162.47169    156.38207    158.07150    142.52411    153.84300    144.41625    148.03391    144.80671   
407      157.98053    144.78458    156.32253    146.12205    146.13587    148.20376    152.12396    154.99095    151.27143    146.06602   
408      142.71406    143.88140    142.24283    150.40233    142.89371    139.26112    155.53729    142.90762    146.84914    143.74471   
409      145.86869    132.77381    149.01081    144.89123    148.76758    146.27036    138.41093    144.02074    150.33741    143.99777   
410      142.02557    131.29658    139.10366    140.87503    138.40229    144.33770    142.97698    135.02463    139.45046    150.58152   
411      146.14369    136.95129    135.77975    134.86176    139.20565    143.81925    132.24588    140.16907    148.63000    147.24122   
412      134.68149    137.24663    134.07769    133.77465    132.26560    146.66483    137.56534    137.45687    131.90440    131.36059   
413      144.84883    145.55968    129.02534    141.20149    134.17134    132.87228    145.57581    132.38558    132.76272    131.56170   
414      140.88897    131.36533    134.70545    132.43293    138.28330    135.25601    129.69551    137.56849    135.33672    138.50805   
415      133.02823    128.57172    134.66051    144.23282    142.39969    140.38949    140.28848    137.18822    133.99010    136.50957   
416      130.96143    127.69078    136.29298    124.42055    136.68335    137.34488    136.11813    132.74333    139.89540    133.27448   
417      130.95927    126.13192    131.15739    125.38156    124.50700    136.75958    140.18285    131.63016    133.78284    124.16660   
418      134.84840    130.67612    133.48288    127.82446    128.66504    132.88953    133.75036    135.96958    134.80659    138.21648   
419      127.70335    124.67483    128.95203    134.08654    125.27205    134.24897    129.39856    134.26219    140.00368    129.35839   
420      133.59201    131.73507    131.86544    135.97991    136.02294    131.75598    123.97762    133.78595    131.70896    123.92949   
421      133.92199    128.00770    132.35856    124.33323    122.29541    125.32277    135.09207    123.33558    126.89486    135.04157   
422      128.53840    130.04087    132.72599    120.42181    127.71212    121.63244    127.80026    134.16963    126.28019    129.61030   
423      125.83856    133.53584    129.05621    131.65864    134.66911    122.61326    128.27809    122.88663    132.29029    118.82701   
424      125.70603    128.59663    120.25423    127.97351    129.03615    129.76855    121.22891    131.67606    132.92721    129.92306   
425      131.57401    123.22711    130.73277    122.40232    119.15971    128.74991    122.46639    124.24251    130.25583    127.94557   
426      118.81808    124.82163    119.65573    122.62589    127.57990    126.66264    128.88084    121.76909    120.50370    127.64389   
427      117.86881    118.17721    124.16355    122.78504    119.85010    128.85355    119.73727    130.43503    125.55327    118.99075   
428      123.91090    126.99763    120.74370    121.50785    124.24885    124.03188    122.32606    129.74148    123.49656    128.64588   
429      120.10787    126.29001    123.28318    122.45041    123.03485    126.02490    125.16934    119.17722    116.47910    125.55199   
430      117.91654    127.00870    118.90122    130.11875    120.09868    117.43242    127.97163    120.54774    121.07056    119.37172   
431      117.48712    116.01540    123.34689    115.27989    125.69244    119.57818    120.68166    125.45773    122.62833    125.06068   
432      124.83743    127.74362    127.11843    127.67575    119.49732    120.16336    122.02402    118.41544    128.99896    123.82605   
433      124.87492    117.18951    116.96541    126.65504    125.61937    115.56692    129.18438    126.94890    115.62532    121.45447   
434      124.08596    120.35596    124.83792    128.57740    121.80476    119.66532    126.53505    113.65321    123.10091    115.94214   
435      124.46543    114.52989    120.25344    124.58922    127.31215    122.48685    121.78258    116.51318    123.55988    118.69888   
436      115.44221    128.40920    113.74448    126.71180    126.64717    122.72641    116.21233    120.82081    117.40855    126.40981   
437      123.72250    122.55721    121.00458    127.15240    128.20247    116.43655    116.62886    126.36932    117.16868    128.59049   
438      126.08768    113.60501    113.64496    123.77006    118.38168    117.91696    125.54846    126.96641    125.93982    113.54499   
439      127.09023    124.87057    113.95340    119.07061    125.32071    121.15296    121.57589    117.99091    114.03640    121.37326   
440      124.73558    125.54700    124.76136    123.98098    121.97039    124.22635    123.06946    118.92190    113.59639    122.17499   
441      112.50865    123.62077    113.15861    127.84033    118.04965    112.63098    115.85836    120.98065    119.47178    112.77143   
442      124.51210    123.78301    119.02110    113.30752    116.54737    119.98995    120.17340    118.11082    118.20868    114.59501   
443      119.45908    119.61699    118.59274    113.43757    126.69543    123.88044    116.52027    122.11081    117.31271    124.76544   
444      112.96993    117.70517    112.62925    124.55214    124.05399    125.33710    116.95044    115.31401    122.56016    125.74416   
445      115.77628    118.92432    125.46529    112.86061    120.85558    123.45757    113.95932    121.04638    122.84916    120.13200   
446      117.22878    115.90402    119.13788    119.66141    117.17701    118.26050    112.85115    123.28917    126.42563    117.26840   
447      121.72664    118.58966    123.76451    119.84363    114.68052    112.32885    123.90748    120.80692    113.47443    114.51353   
448      118.31251    116.64039    119.34681    121.90955    115.05488    121.60667    112.76046    119.96376    121.12436    121.96952   
449      113.30004    125.34346    112.47987    116.58186    120.12263    124.41725    124.28203    115.76775    122.03323    125.97339   
450      114.19806    119.44366    121.38376    123.69551    113.89018    111.26091    115.59713    119.13665    115.26597    118.33466   
451      124.86122    121.15490    118.05398    119.37807    112.41879    125.96317    111.07765    118.72744    125.01870    111.71272   
452      115.07734    119.91202    114.98026    116.83176    120.03331    124.98789    114.79719    117.14600    116.62852    118.96771   
453      118.12382    120.17831    112.25440    119.08699    124.32713    123.85860    115.28858    120.41999    121.17016    121.09727   
454      122.92246    123.05178    122.56217    114.34308    114.44354    115.44010    118.11764    115.44679    117.12444    121.49676   
455      115.61221    115.06599    124.13313    122.15294    122.12355    124.12046    123.09778    124.02669    120.83520    124.77709   
456      118.31332    122.21985    116.18322    114.80515    125.10097    111.16982    111.77337    115.34015    120.96068    117.16100   
457      112.91417    114.92392    118.56663    112.91170    113.31347    125.80554    119.31875    112.08862    116.09450    123.46731   
458      120.97401    116.95088    125.23252    119.59271    120.16252    124.87210    111.55735    121.06689    114.84186    123.18746   
459      116.56969    113.38320    115.29583    111.69877    121.26883    118.43041    120.72532    116.49803    118.77586    118.07058   
460      119.75506    123.74803    123.86101    117.20998    116.39591    123.10935    120.12061    118.29251    120.51230    119.75807   
461      124.28771    114.06157    121.08256    120.56409    122.51778    119.97951    119.01813    121.22277    123.96046    122.82974   
462      124.37597    117.84155    117.68447    111.57375    124.93217    113.30124    111.42727    118.59069    112.77515    111.15082   
463      119.54655    125.11091    116.69736    125.23806    111.36646    115.03652    123.11173    121.51010    120.44138    121.29826   
464      118.78924    116.20303    112.34798    119.20628    114.43021    117.74339    113.39881    122.47355    119.38588    115.00888   
465      112.24519    124.94846    112.86689    112.17996    122.04307    121.71970    124.06622    118.24560    123.60780    123.54308   
466      115.36991    117.17827    121.95336    117.78936    116.53615    122.09952    117.08082    123.44314    113.22600    119.15288   
467      116.57966    112.37813    119.82535    120.94682    120.32647    119.04496    117.70038    116.92785    119.13562    113.60858   
468      116.06985    110.27253    116.67494    116.99158    119.21609    117.48568    112.37439    114.33330    117.21275    121.53728   
469      111.26918    122.18749    119.93750    113.91768    117.97747    114.77216    112.10487    112.01341    111.75601    121.32960   
470      110.22113    121.82572    120.04413    121.80891    118.72287    119.93659    123.70120    114.67993    121.97895    117.80781   
471      120.92845    124.87407    119.54191    120.31473    123.59390    119.17442    114.51125    113.78291    113.40187    115.97740   
472      118.28270    111.67692    113.19256    116.51455    124.86548    118.02333    122.18169    116.78451    118.13327    115.75101   
473      123.85505    116.81154    111.60283    115.04733    112.71301    122.24774    124.82049    122.98093    113.34799    111.31218   
474      118.51856    119.62736    112.17077    111.85941    114.94704    118.78054    124.31943    123.46347    122.06517    123.87024   
475      116.09284    112.31945    118.91330    111.56588    123.38684    121.42543    125.12540    112.69090    121.29819    118.79538   
476      119.90318    112.98091    113.25768    123.43812    111.90350    114.94019    116.87467    117.74624    112.38499    121.37554   
477      115.56346    110.90631    112.03971    110.63980    116.85130    116.48638    119.36298    119.79448    118.23126    120.34125   
478      116.96311    117.08278    112.32970    119.73388    121.61072    124.18298    123.67545    123.58883    114.57640    110.88043   
479      122.09418    118.94794    115.01880    112.45216    115.81419    116.28118    112.95793    119.56510    122.50701    117.14582   
480      119.63867    116.80107    121.02470    112.34184    118.11959    122.62440    111.86883    111.66547    118.04017    122.93194   
481      121.88740    124.07382    122.62404    119.71032    112.93210    116.24436    124.95118    117.39911    121.27207    111.34557   
482      124.74381    113.54959    124.89302    114.02664    120.78842    120.32572    116.96230    118.53853    121.09987    114.25403   
483      122.36067    122.41067    120.10531    115.00664    123.18678    123.69417    119.56164    125.02296    122.24508    121.35211   
484      120.40716    117.31393    114.32086    124.71460    122.26609    124.47597    114.45718    123.69162    111.24378    116.89812   
485      113.59945    114.67046    114.65488    120.34868    124.37266    120.61800    112.66158    118.20344    117.34633    110.79921   
486      116.70225    120.82208    116.50854    121.30480    115.36417    123.47123    122.50077    117.89544    124.40657    111.51746   
487      120.54508    115.98532    121.91926    116.70886    116.12078    110.90922    120.50427    124.09238    121.99291    124.99626   
488      119.77618    124.04501    115.55547    115.37684    111.15468    111.65482    117.01722    113.89505    115.35393    124.33984   
489      112.70105    121.64214    111.94830    114.54690    117.37509    117.18274    113.34809    114.87248    120.16241    121.98064   
490      124.35335    123.17408    119.36115    116.82595    111.83553    119.09226    116.09595    118.91985    110.42778    116.18674   
491      113.41609    111.46514    117.40616    117.49441    118.96600    110.54861    124.92972    124.06598    117.39089    117.85266   
492      116.91304    115.36593    121.16511    122.15307    119.09349    119.78046    112.68119    111.35625    124.15426    114.97950   
493      117.24640    114.59188    111.25696    121.68762    116.58850    123.75769    124.93392    111.83801    123.08639    124.78295   
494      119.56947    120.65909    120.40414    122.81787    124.28958    110.98250    118.06288    120.50921    124.91440    121.62875   
495      117.41613    114.93339    122.40387    124.30779    119.43899    119.22803    123.70494    122.11122    121.99063    118.83831   
496      122.16930    113.49708    116.05330    111.88840    113.19712    118.25011    121.75999    112.95262    111.24345    111.05157   
497      122.54690    118.42140    112.63697    122.85587    112.08581    114.34400    117.15392    118.35861    124.60395    112.15553   
498      112.71053    123.46391    121.92608    115.99428    112.32971    124.26608    113.89473    122.50172    124.25803    111.92826   
499      117.56834    116.09911    117.03721    112.49789    124.88093    112.99861    120.32610    123.10537    122.70201    123.74690   
500      110.67665    124.69071    120.07858    117.50574    112.81715    117.43877    110.25710    114.55053    120.75614    115.09109   
501      122.60434    121.26972    117.78209    119.51073    112.84921    120.12328    119.95822    122.42021    110.24599    120.43227   
502      110.86038    111.91639    113.01956    116.66184    124.12745    119.18671    111.28775    121.79485    120.25864    118.88431   
503      116.21917    124.81019    115.07022    114.05237    118.46176    116.29426    117.02743    117.01577    119.57536    114.68883   
504      123.05755    121.83106    111.27862    119.66707    115.35216    117.74302    112.64313    114.75108    118.47987    123.13075   
505      118.35495    116.95067    113.38434    111.13587    121.35158    111.22391    112.75340    119.12309    117.19400    116.16052   
506      118.60251    119.94358    111.97186    118.29321    117.69984    114.03638    116.86001    110.23977    118.82307    113.60727   
507      124.45910    111.30433    114.68293    113.78007    117.88252    122.88702    113.17555    122.09170    124.27725    117.65253   
508      123.71105    110.35424    117.00843    112.84894    114.19774    120.37990    111.41844    120.07151    122.72209    122.04784   
509      115.85470    116.49323    117.66301    124.66160    123.37859    123.09993    121.00017    118.49448    121.37851    123.43676   
510      120.61869    122.56827    121.02647    111.54612    119.74726    121.35037    118.10216    119.17455    121.30815    120.22427   
511      123.20432    117.07237    114.14042    121.15894    116.64156    120.33928    123.59204    122.27343    121.42752    119.21918   
512      110.72442    111.03666    120.52747    110.64269    116.68919    121.63129    122.16294    113.57978    114.41061    110.01096   
